{
  "name": "Common Safety Displays",
  "id": "CSD",
  "mainListOfContents": {
    "name": "List of Planned Analyses",
    "label": "LOPA",
    "contentsList": {
      "listItems": [
        {
          "name": "Summary of Demographics",
          "level": 1,
          "order": 1,
          "outputId": "Out14-1-1",
          "sublist": {
            "listItems": [
              {
                "name": "Summary of Subjects by Treatment",
                "level": 2,
                "order": 1,
                "analysisId": "An01_05_SAF_Summ_ByTrt"
              },
              {
                "name": "Age",
                "level": 2,
                "order": 2,
                "sublist": {
                  "listItems": [
                    {
                      "name": "Summary by Treatment",
                      "level": 3,
                      "order": 1,
                      "analysisId": "An03_01_Age_Summ_ByTrt"
                    },
                    {
                      "name": "Comparison by Treatment",
                      "level": 3,
                      "order": 2,
                      "analysisId": "An03_01_Age_Comp_ByTrt"
                    }
                  ]
                }
              },
              {
                "name": "Age Group",
                "level": 2,
                "order": 3,
                "sublist": {
                  "listItems": [
                    {
                      "name": "Summary of Subjects by Treatment",
                      "level": 3,
                      "order": 1,
                      "analysisId": "An03_02_AgeGrp_Summ_ByTrt"
                    },
                    {
                      "name": "Comparison of Subjects by Treatment",
                      "level": 3,
                      "order": 2,
                      "analysisId": "An03_02_AgeGrp_Comp_ByTrt"
                    }
                  ]
                }
              },
              {
                "name": "Sex",
                "level": 2,
                "order": 4,
                "sublist": {
                  "listItems": [
                    {
                      "name": "Summary of Subjects by Treatment",
                      "level": 3,
                      "order": 1,
                      "analysisId": "An03_03_Sex_Summ_ByTrt"
                    },
                    {
                      "name": "Comparison of Subjects by Treatment",
                      "level": 3,
                      "order": 2,
                      "analysisId": "An03_03_Sex_Comp_ByTrt"
                    }
                  ]
                }
              },
              {
                "name": "Ethnicity",
                "level": 2,
                "order": 5,
                "sublist": {
                  "listItems": [
                    {
                      "name": "Summary of Subjects by Treatment",
                      "level": 3,
                      "order": 1,
                      "analysisId": "An03_04_Ethnic_Summ_ByTrt"
                    },
                    {
                      "name": "Comparison of Subjects by Treatment",
                      "level": 3,
                      "order": 2,
                      "analysisId": "An03_04_Ethnic_Comp_ByTrt"
                    }
                  ]
                }
              },
              {
                "name": "Race",
                "level": 2,
                "order": 6,
                "sublist": {
                  "listItems": [
                    {
                      "name": "Summary of Subjects by Treatment",
                      "level": 3,
                      "order": 1,
                      "analysisId": "An03_05_Race_Summ_ByTrt"
                    },
                    {
                      "name": "Comparison of Subjects by Treatment",
                      "level": 3,
                      "order": 2,
                      "analysisId": "An03_05_Race_Comp_ByTrt"
                    }
                  ]
                }
              },
              {
                "name": "Height",
                "level": 2,
                "order": 7,
                "sublist": {
                  "listItems": [
                    {
                      "name": "Summary by Treatment",
                      "level": 3,
                      "order": 1,
                      "analysisId": "An03_06_Height_Summ_ByTrt"
                    },
                    {
                      "name": "Comparison by Treatment",
                      "level": 3,
                      "order": 2,
                      "analysisId": "An03_06_Height_Comp_ByTrt"
                    }
                  ]
                }
              }
            ]
          }
        },
        {
          "name": "Overall Summary of Treatment-Emergent Adverse Events",
          "level": 1,
          "order": 2,
          "outputId": "Out14-3-1-1",
          "sublist": {
            "listItems": [
              {
                "name": "Summary of Subjects by Treatment",
                "level": 2,
                "order": 1,
                "analysisId": "An01_05_SAF_Summ_ByTrt"
              },
              {
                "name": "Number of subjects with at least one event",
                "level": 2,
                "order": 2,
                "sublist": {
                  "listItems": [
                    {
                      "name": "TEAE",
                      "level": 3,
                      "order": 1,
                      "analysisId": "An07_01_TEAE_Summ_ByTrt"
                    },
                    {
                      "name": "Related TEAE",
                      "level": 3,
                      "order": 2,
                      "analysisId": "An07_02_RelTEAE_Summ_ByTrt"
                    },
                    {
                      "name": "Serious TEAE",
                      "level": 3,
                      "order": 3,
                      "analysisId": "An07_03_SerTEAE_Summ_ByTrt"
                    },
                    {
                      "name": "Related Serious TEAE",
                      "level": 3,
                      "order": 4,
                      "analysisId": "An07_04_RelSerTEAE_Summ_ByTrt"
                    },
                    {
                      "name": "TEAE Leading to Death",
                      "level": 3,
                      "order": 5,
                      "analysisId": "An07_05_TEAELd2Dth_Summ_ByTrt"
                    },
                    {
                      "name": "Related TEAE Leading to Death",
                      "level": 3,
                      "order": 6,
                      "analysisId": "An07_06_RelTEAELd2Dth_Summ_ByTrt"
                    },
                    {
                      "name": "TEAE Leading to Dose Modification",
                      "level": 3,
                      "order": 7,
                      "analysisId": "An07_07_TEAELd2DoseMod_Summ_ByTrt"
                    },
                    {
                      "name": "TEAE Leading to Treatment Discontinuation",
                      "level": 3,
                      "order": 8,
                      "analysisId": "An07_08_TEAELd2TrtDsc_Summ_ByTrt"
                    }
                  ]
                }
              }
            ]
          }
        },
        {
          "name": "Summary of TEAE by System Organ Class and Preferred Term",
          "level": 1,
          "order": 3,
          "outputId": "Out14-3-2-1",
          "sublist": {
            "listItems": [
              {
                "name": "Summary of Subjects by Treatment",
                "level": 2,
                "order": 1,
                "analysisId": "An01_05_SAF_Summ_ByTrt"
              },
              {
                "name": "Number of subjects with at least one event",
                "level": 2,
                "order": 2,
                "sublist": {
                  "listItems": [
                    {
                      "name": "Summary of Subjects by Treatment",
                      "level": 3,
                      "order": 1,
                      "analysisId": "An07_01_TEAE_Summ_ByTrt"
                    },
                    {
                      "name": "Comparison of Subjects by Treatment - Placebo vs Low Dose",
                      "level": 3,
                      "order": 2,
                      "analysisId": "An07_01_TEAE_Comp_ByTrt_PlacLow"
                    },
                    {
                      "name": "Comparison of Subjects by Treatment - Placebo vs High Dose",
                      "level": 3,
                      "order": 3,
                      "analysisId": "An07_01_TEAE_Comp_ByTrt_PlacHigh"
                    }
                  ]
                }
              },
              {
                "name": "System Organ Class",
                "level": 2,
                "order": 3,
                "sublist": {
                  "listItems": [
                    {
                      "name": "Summary of Subjects by Treatment and System Organ Class",
                      "level": 3,
                      "order": 1,
                      "analysisId": "An07_09_Soc_Summ_ByTrt"
                    },
                    {
                      "name": "Comparison of Subjects with TEAEs by Treatment and System Organ Class - Placebo vs Low Dose",
                      "level": 3,
                      "order": 2,
                      "analysisId": "An07_09_Soc_Comp_ByTrt_PlacLow"
                    },
                    {
                      "name": "Comparison of Subjects with TEAEs by Treatment and System Organ Class - Placebo vs High Dose",
                      "level": 3,
                      "order": 3,
                      "analysisId": "An07_09_Soc_Comp_ByTrt_PlacHigh"
                    }
                  ]
                }
              },
              {
                "name": "Preferred Term",
                "level": 2,
                "order": 4,
                "sublist": {
                  "listItems": [
                    {
                      "name": "Summary of Subjects by Treatment, System Organ Class and Preferred Term",
                      "level": 3,
                      "order": 1,
                      "analysisId": "An07_10_SocPt_Summ_ByTrt"
                    },
                    {
                      "name": "Comparison of Subjects with TEAEs by Treatment, System Organ Class and Preferred Term - Placebo vs Low Dose",
                      "level": 3,
                      "order": 2,
                      "analysisId": "An07_10_SocPt_Comp_ByTrt_PlacLow"
                    },
                    {
                      "name": "Comparison of Subjects with TEAEs by Treatment, System Organ Class and Preferred Term - Placebo vs High Dose",
                      "level": 3,
                      "order": 3,
                      "analysisId": "An07_10_SocPt_Comp_ByTrt_PlacHigh"
                    }
                  ]
                }
              }
            ]
          }
        },
        {
          "name": "Summary of Observed and Change from Baseline by Scheduled Visits - Vital Signs (Horizontal)",
          "level": 1,
          "order": 4,
          "outputId": "Out14-3-3-1a",
          "sublist": {
            "listItems": [
              {
                "name": "Summary of Subjects by Treatment",
                "level": 2,
                "order": 1,
                "analysisId": "An01_05_SAF_Summ_ByTrt"
              },
              {
                "name": "Summary of Observed Value by Treatment, Parameter and Visit",
                "level": 2,
                "order": 2,
                "analysisId": "An08_01_Obs_Summ_ByTrt"
              },
              {
                "name": "Summary of Change from Baseline by Treatment, Parameter and Visit",
                "level": 2,
                "order": 3,
                "analysisId": "An08_02_ChgBl_Summ_ByTrt"
              }
            ]
          }
        },
        {
          "name": "Summary of Observed and Change from Baseline by Scheduled Visits - Vital Signs (Vertical)",
          "level": 1,
          "order": 5,
          "outputId": "Out14-3-3-1b",
          "sublist": {
            "listItems": [
              {
                "name": "Summary of Subjects by Treatment",
                "level": 2,
                "order": 1,
                "analysisId": "An01_05_SAF_Summ_ByTrt"
              },
              {
                "name": "Summary of Observed Value by Treatment, Parameter and Visit",
                "level": 2,
                "order": 2,
                "analysisId": "An08_01_Obs_Summ_ByTrt"
              },
              {
                "name": "Summary of Change from Baseline by Treatment, Parameter and Visit",
                "level": 2,
                "order": 3,
                "analysisId": "An08_02_ChgBl_Summ_ByTrt"
              }
            ]
          }
        }
      ]
    }
  },
  "version": 1,
  "otherListsOfContents": [
    {
      "name": "List of Planned Outputs",
      "label": "LOPO",
      "contentsList": {
        "listItems": [
          {
            "name": "Summary of Demographics",
            "level": 1,
            "order": 1,
            "outputId": "Out14-1-1"
          },
          {
            "name": "Overall Summary of Treatment-Emergent Adverse Events",
            "level": 1,
            "order": 2,
            "outputId": "Out14-3-1-1"
          },
          {
            "name": "Summary of TEAE by System Organ Class and Preferred Term",
            "level": 1,
            "order": 3,
            "outputId": "Out14-3-2-1"
          },
          {
            "name": "Summary of Observed and Change from Baseline by Scheduled Visits - Vital Signs (Horizontal)",
            "level": 1,
            "order": 4,
            "outputId": "Out14-3-3-1a"
          },
          {
            "name": "Summary of Observed and Change from Baseline by Scheduled Visits - Vital Signs (Vertical)",
            "level": 1,
            "order": 5,
            "outputId": "Out14-3-3-1b"
          }
        ]
      }
    }
  ],
  "referenceDocuments": [
    {
      "name": "Statistical Analysis Plan",
      "id": "CDISCPILOT01_SAP",
      "location": "./sap.pdf"
    },
    {
      "name": "Clinical Study Report",
      "id": "CDISCPILOT01_CSR",
      "location": "./csr-cdiscpilot01.pdf"
    },
    {
      "name": "at14-5-01.sas",
      "id": "at14-5-01_sas",
      "location": "./at14-5-01.sas"
    },
    {
      "name": "AE Summary Table Shell",
      "id": "AE_Summary_Table_Shell",
      "location": "./AE_Summary_Table_Shell.pdf"
    }
  ],
  "terminologyExtensions": [
    {
      "id": "TermEx1",
      "sponsorTerms": [
        {
          "id": "TermEx1_1",
          "submissionValue": "ADDITIONAL EXAMPLE",
          "description": "The analysis was included in the set as an additional example to demonstrate both a different type of analysis and sponsor terminology for analysis reason."
        }
      ],
      "enumeration": "AnalysisReasonEnum"
    }
  ],
  "analysisOutputCategorizations": [
    {
      "id": "Catn_01_Grp",
      "categories": [
        {
          "id": "Catn_01_Grp_1_Pop",
          "label": "Population Description"
        },
        {
          "id": "Catn_01_Grp_2_Saf",
          "label": "Safety"
        },
        {
          "id": "Catn_01_Grp_3_Eff",
          "label": "Efficacy"
        }
      ],
      "label": "Group of Analyses"
    },
    {
      "id": "Catn_02_DClass",
      "categories": [
        {
          "id": "Catn_02_Dclass_1_Sbj",
          "label": "Subject-level",
          "subCategorizations": [
            {
              "id": "Catn_03_SbjDType",
              "categories": [
                {
                  "id": "Catn_03_SbjDType_1_Dm",
                  "label": "Demographics"
                }
              ],
              "label": "Subject-level Data Type"
            }
          ]
        },
        {
          "id": "Catn_02_Dclass_2_Evt",
          "label": "Events",
          "subCategorizations": [
            {
              "id": "Catn_04_EvtDType",
              "categories": [
                {
                  "id": "Catn_04_EvtDType_1_Ae",
                  "label": "Adverse Events"
                },
                {
                  "id": "Catn_04_EvtDType_2_Ce",
                  "label": "Clinical Events"
                },
                {
                  "id": "Catn_04_EvtDType_3_Ds",
                  "label": "Disposition"
                }
              ],
              "label": "Events Data Type"
            },
            {
              "id": "Catn_05_EvtAType",
              "categories": [
                {
                  "id": "Catn_05_EvtAType_1_Occ",
                  "label": "Occurrence"
                },
                {
                  "id": "Catn_05_EvtAType_2_Tte",
                  "label": "Time-to-Event"
                }
              ],
              "label": "Events Analysis Type"
            }
          ]
        },
        {
          "id": "Catn_02_Dclass_3_Fnd",
          "label": "Findings",
          "subCategorizations": [
            {
              "id": "Catn_06_FndDType",
              "categories": [
                {
                  "id": "Catn_06_FndDType_1_Vs",
                  "label": "Vital Signs"
                },
                {
                  "id": "Catn_06_FndDType_2_Lb",
                  "label": "Laboratory Tests"
                }
              ],
              "label": "Findings Data Type"
            },
            {
              "id": "Catn_07_FndAType",
              "categories": [
                {
                  "id": "Catn_07_FndAType_1_Chg",
                  "label": "Change from Baseline"
                },
                {
                  "id": "Catn_07_FndAType_2_Sft",
                  "label": "Shift Table"
                }
              ],
              "label": "Findings Analysis Type"
            }
          ]
        }
      ],
      "label": "Analysis Data Class"
    }
  ],
  "analysisSets": [
    {
      "name": "Intent-to-Treat Population",
      "label": "ITT",
      "id": "AnalysisSet_01_ITT",
      "level": 1,
      "order": 1,
      "condition": {
        "dataset": "ADSL",
        "variable": "ITTFL",
        "comparator": "EQ",
        "value": [
          "Y"
        ]
      }
    },
    {
      "name": "Safety Population",
      "label": "SAF",
      "id": "AnalysisSet_02_SAF",
      "level": 1,
      "order": 1,
      "condition": {
        "dataset": "ADSL",
        "variable": "SAFFL",
        "comparator": "EQ",
        "value": [
          "Y"
        ]
      }
    }
  ],
  "dataSubsets": [
    {
      "name": "Treatment-Emergent Adverse Events",
      "id": "Dss01_TEAE",
      "level": 1,
      "order": 1,
      "condition": {
        "dataset": "ADAE",
        "variable": "TRTEMFL",
        "comparator": "EQ",
        "value": [
          "Y"
        ]
      }
    },
    {
      "name": "Related Treatment-Emergent Adverse Events",
      "id": "Dss02_Related_TEAE",
      "level": 1,
      "order": 1,
      "compoundExpression": {
        "logicalOperator": "AND",
        "whereClauses": [
          {
            "level": 2,
            "order": 1,
            "condition": {
              "dataset": "ADAE",
              "variable": "TRTEMFL",
              "comparator": "EQ",
              "value": [
                "Y"
              ]
            }
          },
          {
            "level": 2,
            "order": 2,
            "condition": {
              "dataset": "ADAE",
              "variable": "AEREL",
              "comparator": "IN",
              "value": [
                "POSSIBLE",
                "PROBABLE"
              ]
            }
          }
        ]
      }
    },
    {
      "name": "Serious Treatment-Emergent Adverse Events",
      "id": "Dss03_Serious_TEAE",
      "level": 1,
      "order": 1,
      "compoundExpression": {
        "logicalOperator": "AND",
        "whereClauses": [
          {
            "level": 2,
            "order": 1,
            "condition": {
              "dataset": "ADAE",
              "variable": "TRTEMFL",
              "comparator": "EQ",
              "value": [
                "Y"
              ]
            }
          },
          {
            "level": 2,
            "order": 2,
            "condition": {
              "dataset": "ADAE",
              "variable": "AESER",
              "comparator": "EQ",
              "value": [
                "Y"
              ]
            }
          }
        ]
      }
    },
    {
      "name": "Related Serious Treatment-Emergent Adverse Events",
      "id": "Dss04_RelSer_TEAE",
      "level": 1,
      "order": 1,
      "compoundExpression": {
        "logicalOperator": "AND",
        "whereClauses": [
          {
            "level": 2,
            "order": 1,
            "condition": {
              "dataset": "ADAE",
              "variable": "TRTEMFL",
              "comparator": "EQ",
              "value": [
                "Y"
              ]
            }
          },
          {
            "level": 2,
            "order": 2,
            "condition": {
              "dataset": "ADAE",
              "variable": "AEREL",
              "comparator": "IN",
              "value": [
                "POSSIBLE",
                "PROBABLE"
              ]
            }
          },
          {
            "level": 2,
            "order": 3,
            "condition": {
              "dataset": "ADAE",
              "variable": "AESER",
              "comparator": "EQ",
              "value": [
                "Y"
              ]
            }
          }
        ]
      }
    },
    {
      "name": "Treatment-Emergent Adverse Events Leading to Death",
      "id": "Dss05_TEAE_Ld2Dth",
      "level": 1,
      "order": 1,
      "compoundExpression": {
        "logicalOperator": "AND",
        "whereClauses": [
          {
            "level": 2,
            "order": 1,
            "condition": {
              "dataset": "ADAE",
              "variable": "TRTEMFL",
              "comparator": "EQ",
              "value": [
                "Y"
              ]
            }
          },
          {
            "level": 2,
            "order": 2,
            "condition": {
              "dataset": "ADAE",
              "variable": "AESDTH",
              "comparator": "EQ",
              "value": [
                "Y"
              ]
            }
          }
        ]
      }
    },
    {
      "name": "Related Treatment-Emergent Adverse Events Leading to Death",
      "id": "Dss06_Rel_TEAE_Ld2Dth",
      "level": 1,
      "order": 1,
      "compoundExpression": {
        "logicalOperator": "AND",
        "whereClauses": [
          {
            "level": 2,
            "order": 1,
            "condition": {
              "dataset": "ADAE",
              "variable": "TRTEMFL",
              "comparator": "EQ",
              "value": [
                "Y"
              ]
            }
          },
          {
            "level": 2,
            "order": 2,
            "condition": {
              "dataset": "ADAE",
              "variable": "AESDTH",
              "comparator": "EQ",
              "value": [
                "Y"
              ]
            }
          },
          {
            "level": 2,
            "order": 3,
            "compoundExpression": {
              "logicalOperator": "OR",
              "whereClauses": [
                {
                  "level": 3,
                  "order": 1,
                  "condition": {
                    "dataset": "ADAE",
                    "variable": "AEREL",
                    "comparator": "EQ",
                    "value": [
                      "POSSIBLE"
                    ]
                  }
                },
                {
                  "level": 3,
                  "order": 2,
                  "condition": {
                    "dataset": "ADAE",
                    "variable": "AEREL",
                    "comparator": "EQ",
                    "value": [
                      "PROBABLE"
                    ]
                  }
                }
              ]
            }
          }
        ]
      }
    },
    {
      "name": "Treatment-Emergent Adverse Events Leading to Dose Modification",
      "id": "Dss07_TEAE_Ld2DoseMod",
      "level": 1,
      "order": 1,
      "compoundExpression": {
        "logicalOperator": "AND",
        "whereClauses": [
          {
            "level": 2,
            "order": 1,
            "condition": {
              "dataset": "ADAE",
              "variable": "TRTEMFL",
              "comparator": "EQ",
              "value": [
                "Y"
              ]
            }
          },
          {
            "level": 2,
            "order": 2,
            "condition": {
              "dataset": "ADAE",
              "variable": "AEACN",
              "comparator": "IN",
              "value": [
                "DOSE REDUCED",
                "DRUG INTERRUPTED"
              ]
            }
          }
        ]
      }
    },
    {
      "name": "Treatment-Emergent Adverse Events Leading to Treatment Discontinuation",
      "id": "Dss08_AE_Ld2TrtDsc",
      "level": 1,
      "order": 1,
      "compoundExpression": {
        "logicalOperator": "AND",
        "whereClauses": [
          {
            "level": 2,
            "order": 1,
            "condition": {
              "dataset": "ADAE",
              "variable": "TRTEMFL",
              "comparator": "EQ",
              "value": [
                "Y"
              ]
            }
          },
          {
            "level": 2,
            "order": 2,
            "condition": {
              "dataset": "ADAE",
              "variable": "AEACN",
              "comparator": "EQ",
              "value": [
                "DRUG WITHDRAWN"
              ]
            }
          }
        ]
      }
    },
    {
      "name": "Vital Signs Analysis Records",
      "id": "Dss09_VS_AnRec",
      "level": 1,
      "order": 1,
      "condition": {
        "dataset": "ADVS",
        "variable": "ANL01FL",
        "comparator": "EQ",
        "value": [
          "Y"
        ]
      }
    },
    {
      "name": "Vital Signs Non-baseline Analysis Records",
      "id": "Dss10_VS_NonBl_AnRec",
      "level": 1,
      "order": 1,
      "compoundExpression": {
        "logicalOperator": "AND",
        "whereClauses": [
          {
            "level": 2,
            "order": 1,
            "condition": {
              "dataset": "ADVS",
              "variable": "ANL01FL",
              "comparator": "EQ",
              "value": [
                "Y"
              ]
            }
          },
          {
            "level": 2,
            "order": 2,
            "condition": {
              "dataset": "ADVS",
              "variable": "AVISIT",
              "comparator": "NE",
              "value": [
                "Baseline"
              ]
            }
          }
        ]
      }
    },
    {
      "name": "Treatment-Emergent Adverse Events for Placebo and Low Active Dose",
      "id": "Dss11_TEAE_PlacLow",
      "level": 1,
      "order": 1,
      "compoundExpression": {
        "logicalOperator": "AND",
        "whereClauses": [
          {
            "level": 2,
            "order": 1,
            "condition": {
              "dataset": "ADAE",
              "variable": "TRTEMFL",
              "comparator": "EQ",
              "value": [
                "Y"
              ]
            }
          },
          {
            "level": 2,
            "order": 2,
            "condition": {
              "dataset": "ADSL",
              "variable": "TRT01A",
              "comparator": "IN",
              "value": [
                "Placebo",
                "Xanomeline Low Dose"
              ]
            }
          }
        ]
      }
    },
    {
      "name": "Treatment-Emergent Adverse Events for Placebo and High Active Dose",
      "id": "Dss12_TEAE_PlacHigh",
      "level": 1,
      "order": 1,
      "compoundExpression": {
        "logicalOperator": "AND",
        "whereClauses": [
          {
            "level": 2,
            "order": 1,
            "condition": {
              "dataset": "ADAE",
              "variable": "TRTEMFL",
              "comparator": "EQ",
              "value": [
                "Y"
              ]
            }
          },
          {
            "level": 2,
            "order": 2,
            "condition": {
              "dataset": "ADSL",
              "variable": "TRT01A",
              "comparator": "IN",
              "value": [
                "Placebo",
                "Xanomeline High Dose"
              ]
            }
          }
        ]
      }
    },
    {
      "id": "DssEff01_ADAS_Wk24",
      "name": "ADAS-Cog(11) total at Week 24",
      "level": 1,
      "order": 13,
      "compoundExpression": {
        "logicalOperator": "AND",
        "whereClauses": [
          {
            "level": 2,
            "order": 1,
            "condition": {
              "dataset": "ADQSADAS",
              "variable": "PARAMCD",
              "comparator": "EQ",
              "value": [
                "ACTOT"
              ]
            }
          },
          {
            "level": 2,
            "order": 2,
            "condition": {
              "dataset": "ADQSADAS",
              "variable": "AVISITN",
              "comparator": "EQ",
              "value": [
                "24"
              ]
            }
          },
          {
            "level": 2,
            "order": 3,
            "condition": {
              "dataset": "ADQSADAS",
              "variable": "ANL01FL",
              "comparator": "EQ",
              "value": [
                "Y"
              ]
            }
          }
        ]
      }
    },
    {
      "id": "DssEff02_TTE_Primary",
      "name": "Primary time-to-event parameter",
      "level": 1,
      "order": 14,
      "condition": {
        "dataset": "ADTTE",
        "variable": "PARAMCD",
        "comparator": "EQ",
        "value": [
          "TTDE"
        ]
      }
    }
  ],
  "analysisGroupings": [
    {
      "name": "Treatment",
      "id": "AnlsGrouping_01_Trt",
      "dataDriven": false,
      "groupingDataset": "ADSL",
      "groupingVariable": "TRT01A",
      "groups": [
        {
          "name": "Placebo",
          "id": "AnlsGrouping_01_Trt_1",
          "level": 1,
          "order": 1,
          "condition": {
            "dataset": "ADSL",
            "variable": "TRT01A",
            "comparator": "EQ",
            "value": [
              "Placebo"
            ]
          }
        },
        {
          "name": "Xanomeline Low Dose",
          "id": "AnlsGrouping_01_Trt_2",
          "level": 1,
          "order": 2,
          "condition": {
            "dataset": "ADSL",
            "variable": "TRT01A",
            "comparator": "EQ",
            "value": [
              "Xanomeline Low Dose"
            ]
          }
        },
        {
          "name": "Xanomeline High Dose",
          "id": "AnlsGrouping_01_Trt_3",
          "level": 1,
          "order": 3,
          "condition": {
            "dataset": "ADSL",
            "variable": "TRT01A",
            "comparator": "EQ",
            "value": [
              "Xanomeline High Dose"
            ]
          }
        }
      ]
    },
    {
      "name": "Gender",
      "id": "AnlsGrouping_02_Sex",
      "dataDriven": false,
      "groupingDataset": "ADSL",
      "groupingVariable": "SEX",
      "groups": [
        {
          "name": "Male",
          "id": "AnlsGrouping_02_Sex_1",
          "level": 1,
          "order": 1,
          "condition": {
            "dataset": "ADSL",
            "variable": "SEX",
            "comparator": "EQ",
            "value": [
              "M"
            ]
          }
        },
        {
          "name": "Female",
          "id": "AnlsGrouping_02_Sex_2",
          "level": 1,
          "order": 2,
          "condition": {
            "dataset": "ADSL",
            "variable": "SEX",
            "comparator": "EQ",
            "value": [
              "F"
            ]
          }
        }
      ]
    },
    {
      "name": "Age Group",
      "id": "AnlsGrouping_03_AgeGp",
      "dataDriven": false,
      "groupingDataset": "ADSL",
      "groupingVariable": "AGEGR1",
      "groups": [
        {
          "name": "< 65 years",
          "id": "AnlsGrouping_03_AgeGp_1",
          "level": 1,
          "order": 1,
          "condition": {
            "dataset": "ADSL",
            "variable": "AGEGR1",
            "comparator": "EQ",
            "value": [
              "<65"
            ]
          }
        },
        {
          "name": "\u2265 65 years",
          "id": "AnlsGrouping_03_AgeGp_2",
          "level": 1,
          "order": 2,
          "condition": {
            "dataset": "ADSL",
            "variable": "AGEGR1",
            "comparator": "IN",
            "value": [
              "65-80",
              ">80"
            ]
          }
        }
      ]
    },
    {
      "name": "Primary Race",
      "id": "AnlsGrouping_04_Race",
      "dataDriven": false,
      "groupingDataset": "ADSL",
      "groupingVariable": "RACE",
      "groups": [
        {
          "name": "American Indian or Alaska Native",
          "id": "AnlsGrouping_04_Race_1",
          "level": 1,
          "order": 1,
          "condition": {
            "dataset": "ADSL",
            "variable": "RACE",
            "comparator": "EQ",
            "value": [
              "AMERICAN INDIAN OR ALASKA NATIVE"
            ]
          }
        },
        {
          "name": "Asian",
          "id": "AnlsGrouping_04_Race_2",
          "level": 1,
          "order": 2,
          "condition": {
            "dataset": "ADSL",
            "variable": "RACE",
            "comparator": "EQ",
            "value": [
              "ASIAN"
            ]
          }
        },
        {
          "name": "Black or African American",
          "id": "AnlsGrouping_04_Race_3",
          "level": 1,
          "order": 3,
          "condition": {
            "dataset": "ADSL",
            "variable": "RACE",
            "comparator": "EQ",
            "value": [
              "BLACK OR AFRICAN AMERICAN"
            ]
          }
        },
        {
          "name": "Native Hawaiian or Other Pacific Islander",
          "id": "AnlsGrouping_04_Race_4",
          "level": 1,
          "order": 4,
          "condition": {
            "dataset": "ADSL",
            "variable": "RACE",
            "comparator": "EQ",
            "value": [
              "NATIVE HAWAIIAN OR OTHER PACIFIC ISLANDER"
            ]
          }
        },
        {
          "name": "White",
          "id": "AnlsGrouping_04_Race_5",
          "level": 1,
          "order": 5,
          "condition": {
            "dataset": "ADSL",
            "variable": "RACE",
            "comparator": "EQ",
            "value": [
              "WHITE"
            ]
          }
        },
        {
          "name": "Multiple",
          "id": "AnlsGrouping_04_Race_6",
          "level": 1,
          "order": 6,
          "condition": {
            "dataset": "ADSL",
            "variable": "RACE",
            "comparator": "EQ",
            "value": [
              "MULTIPLE"
            ]
          }
        },
        {
          "name": "Not Reported",
          "id": "AnlsGrouping_04_Race_7",
          "level": 1,
          "order": 7,
          "condition": {
            "dataset": "ADSL",
            "variable": "RACE",
            "comparator": "EQ",
            "value": [
              "NOT REPORTED"
            ]
          }
        },
        {
          "name": "Unknown",
          "id": "AnlsGrouping_04_Race_8",
          "level": 1,
          "order": 8,
          "condition": {
            "dataset": "ADSL",
            "variable": "RACE",
            "comparator": "EQ",
            "value": [
              "UNKNOWN"
            ]
          }
        },
        {
          "name": "Other",
          "id": "AnlsGrouping_04_Race_9",
          "level": 1,
          "order": 9,
          "condition": {
            "dataset": "ADSL",
            "variable": "RACE",
            "comparator": "EQ",
            "value": [
              "OTHER"
            ]
          }
        }
      ]
    },
    {
      "name": "Ethnicity",
      "id": "AnlsGrouping_05_Ethnic",
      "dataDriven": false,
      "groupingDataset": "ADSL",
      "groupingVariable": "ETHNIC",
      "groups": [
        {
          "name": "Hispanic or Latino",
          "id": "AnlsGrouping_05_Ethnic_1",
          "level": 1,
          "order": 1,
          "condition": {
            "dataset": "ADSL",
            "variable": "ETHNIC",
            "comparator": "EQ",
            "value": [
              "HISPANIC OR LATINO"
            ]
          }
        },
        {
          "name": "Not Hispanic or Latino",
          "id": "AnlsGrouping_05_Ethnic_2",
          "level": 1,
          "order": 2,
          "condition": {
            "dataset": "ADSL",
            "variable": "ETHNIC",
            "comparator": "EQ",
            "value": [
              "NOT HISPANIC OR LATINO"
            ]
          }
        }
      ]
    },
    {
      "name": "System Organ Class",
      "id": "AnlsGrouping_06_Soc",
      "dataDriven": true,
      "groupingDataset": "ADAE",
      "groupingVariable": "AESOC"
    },
    {
      "name": "Preferred Term",
      "id": "AnlsGrouping_07_Pt",
      "dataDriven": true,
      "groupingDataset": "ADAE",
      "groupingVariable": "AEDECOD"
    },
    {
      "name": "Parameter",
      "id": "AnlsGrouping_08_Param",
      "dataDriven": false,
      "groupingDataset": "ADVS",
      "groupingVariable": "PARAMCD",
      "groups": [
        {
          "name": "Systolic Blood Pressure (mmHg)",
          "id": "AnlsGrouping_08_Param_1",
          "level": 1,
          "order": 1,
          "condition": {
            "dataset": "ADVS",
            "variable": "PARAMCD",
            "comparator": "EQ",
            "value": [
              "SYSBP"
            ]
          }
        },
        {
          "name": "Diastolic Blood Pressure (mmHg)",
          "id": "AnlsGrouping_08_Param_2",
          "level": 1,
          "order": 2,
          "condition": {
            "dataset": "ADVS",
            "variable": "PARAMCD",
            "comparator": "EQ",
            "value": [
              "DIABP"
            ]
          }
        },
        {
          "name": "Pulse Rate (beats/min)",
          "id": "AnlsGrouping_08_Param_3",
          "level": 1,
          "order": 3,
          "condition": {
            "dataset": "ADVS",
            "variable": "PARAMCD",
            "comparator": "EQ",
            "value": [
              "PULSE"
            ]
          }
        },
        {
          "name": "Temperature (C)",
          "id": "AnlsGrouping_08_Param_4",
          "level": 1,
          "order": 4,
          "condition": {
            "dataset": "ADVS",
            "variable": "PARAMCD",
            "comparator": "EQ",
            "value": [
              "TEMP"
            ]
          }
        }
      ]
    },
    {
      "name": "Visit",
      "id": "AnlsGrouping_09_Visit",
      "dataDriven": false,
      "groupingDataset": "ADVS",
      "groupingVariable": "AVISIT",
      "groups": [
        {
          "name": "Baseline",
          "id": "AnlsGrouping_09_Visit_01",
          "level": 1,
          "order": 1,
          "condition": {
            "dataset": "ADVS",
            "variable": "AVISIT",
            "comparator": "EQ",
            "value": [
              "Baseline"
            ]
          }
        },
        {
          "name": "Week 2",
          "id": "AnlsGrouping_09_Visit_02",
          "level": 1,
          "order": 2,
          "condition": {
            "dataset": "ADVS",
            "variable": "AVISIT",
            "comparator": "EQ",
            "value": [
              "Week 2"
            ]
          }
        },
        {
          "name": "Week 4",
          "id": "AnlsGrouping_09_Visit_03",
          "level": 1,
          "order": 3,
          "condition": {
            "dataset": "ADVS",
            "variable": "AVISIT",
            "comparator": "EQ",
            "value": [
              "Week 4"
            ]
          }
        },
        {
          "name": "Week 6",
          "id": "AnlsGrouping_09_Visit_04",
          "level": 1,
          "order": 4,
          "condition": {
            "dataset": "ADVS",
            "variable": "AVISIT",
            "comparator": "EQ",
            "value": [
              "Week 6"
            ]
          }
        },
        {
          "name": "Week 8",
          "id": "AnlsGrouping_09_Visit_05",
          "level": 1,
          "order": 5,
          "condition": {
            "dataset": "ADVS",
            "variable": "AVISIT",
            "comparator": "EQ",
            "value": [
              "Week 8"
            ]
          }
        },
        {
          "name": "Week 12",
          "id": "AnlsGrouping_09_Visit_06",
          "level": 1,
          "order": 6,
          "condition": {
            "dataset": "ADVS",
            "variable": "AVISIT",
            "comparator": "EQ",
            "value": [
              "Week 12"
            ]
          }
        },
        {
          "name": "Week 16",
          "id": "AnlsGrouping_09_Visit_07",
          "level": 1,
          "order": 7,
          "condition": {
            "dataset": "ADVS",
            "variable": "AVISIT",
            "comparator": "EQ",
            "value": [
              "Week 16"
            ]
          }
        },
        {
          "name": "Week 20",
          "id": "AnlsGrouping_09_Visit_08",
          "level": 1,
          "order": 8,
          "condition": {
            "dataset": "ADVS",
            "variable": "AVISIT",
            "comparator": "EQ",
            "value": [
              "Week 20"
            ]
          }
        },
        {
          "name": "Week 24",
          "id": "AnlsGrouping_09_Visit_09",
          "level": 1,
          "order": 9,
          "condition": {
            "dataset": "ADVS",
            "variable": "AVISIT",
            "comparator": "EQ",
            "value": [
              "Week 24"
            ]
          }
        },
        {
          "name": "Week 26",
          "id": "AnlsGrouping_09_Visit_10",
          "level": 1,
          "order": 10,
          "condition": {
            "dataset": "ADVS",
            "variable": "AVISIT",
            "comparator": "EQ",
            "value": [
              "Week 26"
            ]
          }
        },
        {
          "name": "End of Treatment",
          "id": "AnlsGrouping_09_Visit_11",
          "level": 1,
          "order": 11,
          "condition": {
            "dataset": "ADVS",
            "variable": "AVISIT",
            "comparator": "EQ",
            "value": [
              "End of Treatment"
            ]
          }
        }
      ]
    }
  ],
  "methods": [
    {
      "name": "Count by group for a categorical variable",
      "description": "Count across groups for a categorical variable, based on subject occurrence",
      "label": "Grouped count for categorical variable",
      "id": "Mth01_CatVar_Count_ByGrp",
      "operations": [
        {
          "name": "Count of subjects",
          "label": "n",
          "id": "Mth01_CatVar_Count_ByGrp_1_n",
          "order": 1,
          "resultPattern": "(N=XX)"
        }
      ]
    },
    {
      "name": "Summary by group of a categorical variable",
      "description": "Descriptive summary statistics across groups for a categorical variable, based on subject occurrence",
      "label": "Grouped summary of categorical variable",
      "id": "Mth01_CatVar_Summ_ByGrp",
      "operations": [
        {
          "name": "Count of subjects",
          "label": "n",
          "id": "Mth01_CatVar_Summ_ByGrp_1_n",
          "order": 1,
          "resultPattern": "XXX"
        },
        {
          "name": "Percent of subjects",
          "label": "%",
          "id": "Mth01_CatVar_Summ_ByGrp_2_pct",
          "order": 2,
          "referencedOperationRelationships": [
            {
              "id": "Mth01_CatVar_Summ_ByGrp_2_pct_NUM",
              "referencedOperationRole": {
                "controlledTerm": "NUMERATOR"
              },
              "operationId": "Mth01_CatVar_Summ_ByGrp_1_n",
              "description": "The count operation whose result provides the numerator for calculation of the percentage. The referenced analysis should be the analysis that contains this percent operation."
            },
            {
              "id": "Mth01_CatVar_Summ_ByGrp_2_pct_DEN",
              "referencedOperationRole": {
                "controlledTerm": "DENOMINATOR"
              },
              "operationId": "Mth01_CatVar_Count_ByGrp_1_n",
              "description": "The count operation whose result provides the denominator for calculation of the percentage. The referenced analysis should have the same analysis set and subject grouping(s) as the analysis containing this percent operation."
            }
          ],
          "resultPattern": "( XX.X)"
        }
      ],
      "documentRefs": [
        {
          "referenceDocumentId": "CDISCPILOT01_SAP",
          "pageRefs": [
            {
              "refType": "PhysicalRef",
              "label": "7. GENERAL CONSIDERATIONS FOR DATA ANALYSES",
              "pageNumbers": [
                9
              ]
            }
          ]
        }
      ]
    },
    {
      "name": "Summary by group of a continuous variable",
      "description": "Descriptive summary statistics across groups for a continuous variable",
      "label": "Grouped summary of continuous variable",
      "id": "Mth02_ContVar_Summ_ByGrp",
      "operations": [
        {
          "name": "Count of non-missing values",
          "label": "n",
          "id": "Mth02_ContVar_Summ_ByGrp_1_n",
          "order": 1,
          "resultPattern": "XX"
        },
        {
          "name": "Mean",
          "label": "Mean",
          "id": "Mth02_ContVar_Summ_ByGrp_2_Mean",
          "order": 2,
          "resultPattern": "XX.X"
        },
        {
          "name": "Standard deviation",
          "label": "SD",
          "id": "Mth02_ContVar_Summ_ByGrp_3_SD",
          "order": 3,
          "resultPattern": "(XX.XX)"
        },
        {
          "name": "Median",
          "label": "Median",
          "id": "Mth02_ContVar_Summ_ByGrp_4_Median",
          "order": 4,
          "resultPattern": "XX.X"
        },
        {
          "name": "First quartile",
          "label": "Q1",
          "id": "Mth02_ContVar_Summ_ByGrp_5_Q1",
          "order": 5,
          "resultPattern": "XX.X"
        },
        {
          "name": "Third quartile",
          "label": "Q3",
          "id": "Mth02_ContVar_Summ_ByGrp_6_Q3",
          "order": 6,
          "resultPattern": "XX.X"
        },
        {
          "name": "Minimum",
          "label": "Min",
          "id": "Mth02_ContVar_Summ_ByGrp_7_Min",
          "order": 7,
          "resultPattern": "XX"
        },
        {
          "name": "Maximum",
          "label": "Max",
          "id": "Mth02_ContVar_Summ_ByGrp_8_Max",
          "order": 8,
          "resultPattern": "XX"
        }
      ],
      "documentRefs": [
        {
          "referenceDocumentId": "CDISCPILOT01_SAP",
          "pageRefs": [
            {
              "refType": "PhysicalRef",
              "label": "7. GENERAL CONSIDERATIONS FOR DATA ANALYSES",
              "pageNumbers": [
                9
              ]
            }
          ]
        }
      ]
    },
    {
      "name": "Pearson's chi-square test group comparison for a categorical variable",
      "description": "Comparison of groups by Pearson's chi-square test for a categorical variable",
      "label": "Pearson's chi-square test group comparison for categorical variable",
      "id": "Mth03_CatVar_Comp_PChiSq",
      "operations": [
        {
          "name": "P-value",
          "label": "p-value",
          "id": "Mth03_CatVar_Comp_PChiSq_1_pval",
          "order": 1,
          "resultPattern": "X.XXXX"
        }
      ],
      "codeTemplate": {
        "context": "SAS Version 9.4",
        "code": "proc freq data={dataset};\ntable {grp1var}*{grp2var}/chisq;\nexact pchi; \nods output PearsonChiSq=results.PCHI{outdssfx};\nrun;",
        "parameters": [
          {
            "name": "dataset",
            "description": "Input dataset",
            "valueSource": "dataset"
          },
          {
            "name": "grp1var",
            "description": "First grouping variable",
            "valueSource": "orderedGroupings[1].groupingVariable"
          },
          {
            "name": "grp2var",
            "description": "Second grouping variable",
            "valueSource": "orderedGroupings[2].groupingVariable"
          },
          {
            "name": "outdssfx",
            "description": "Output dataset suffix",
            "valueSource": "orderedGroupings[2].groupingVariable"
          }
        ]
      }
    },
    {
      "name": "Analysis of variance group comparison for a continuous variable",
      "description": "Comparison of groups by analysis of variance (ANOVA) for a continuous variable",
      "label": "ANOVA group comparison for continuous variable",
      "id": "Mth04_ContVar_Comp_Anova",
      "operations": [
        {
          "name": "P-value",
          "label": "p-value",
          "id": "Mth04_ContVar_Comp_Anova_1_pval",
          "order": 1,
          "resultPattern": "X.XXXX"
        }
      ],
      "codeTemplate": {
        "context": "SAS Version 9.4",
        "code": "proc glm data={dataset};\nclass {grp1var};\nmodel {grp2var}={gpr1var};\nods output OverallANOVA=results.ANOV{outdssfx} (where=(source = 'Model'));\nrun;",
        "parameters": [
          {
            "name": "dataset",
            "description": "Input dataset",
            "valueSource": "dataset"
          },
          {
            "name": "grp1var",
            "description": "First grouping variable",
            "valueSource": "orderedGroupings[1].groupingVariable"
          },
          {
            "name": "grp2var",
            "description": "Second grouping variable",
            "valueSource": "variable"
          },
          {
            "name": "outdssfx",
            "description": "Output dataset suffix",
            "valueSource": "variable"
          }
        ]
      }
    },
    {
      "name": "Fisher's exact test group comparison for a categorical variable",
      "description": "Comparison of groups by Fisher's exact test for a categorical variable",
      "label": "Fisher's exact test group comparison for categorical variable",
      "id": "Mth05_CatVar_Comp_FishEx",
      "operations": [
        {
          "name": "P-value",
          "label": "p-value",
          "id": "Mth03_CatVar_Comp_FishEx_1_pval",
          "order": 1,
          "resultPattern": "X.XXXX"
        }
      ]
    },
    {
      "id": "MthEff01_ANCOVA_ChgBl",
      "name": "ANCOVA of change from baseline",
      "label": "ANCOVA change from baseline vs placebo",
      "description": "Analysis of covariance of change from baseline with treatment and baseline value as covariates; LS means and treatment differences vs placebo.",
      "operations": [
        {
          "id": "MthEff01_ANCOVA_ChgBl_1_n",
          "order": 1,
          "name": "Count of non-missing values",
          "label": "n",
          "resultPattern": "XX"
        },
        {
          "id": "MthEff01_ANCOVA_ChgBl_2_LSMean",
          "order": 2,
          "name": "LS mean of change from baseline",
          "label": "LS Mean",
          "resultPattern": "XX.X"
        },
        {
          "id": "MthEff01_ANCOVA_ChgBl_3_LSMeanSE",
          "order": 3,
          "name": "Standard error of LS mean",
          "label": "SE",
          "resultPattern": "(XX.XX)"
        },
        {
          "id": "MthEff01_ANCOVA_ChgBl_4_Diff",
          "order": 4,
          "name": "LS mean difference vs placebo",
          "label": "Diff vs PBO",
          "resultPattern": "XX.X"
        },
        {
          "id": "MthEff01_ANCOVA_ChgBl_5_DiffCILower",
          "order": 5,
          "name": "Lower 95% CI of difference",
          "label": "95% CI Lower",
          "resultPattern": "XX.X"
        },
        {
          "id": "MthEff01_ANCOVA_ChgBl_6_DiffCIUpper",
          "order": 6,
          "name": "Upper 95% CI of difference",
          "label": "95% CI Upper",
          "resultPattern": "XX.X"
        },
        {
          "id": "MthEff01_ANCOVA_ChgBl_7_pval",
          "order": 7,
          "name": "p-value for treatment difference",
          "label": "p-value",
          "resultPattern": "X.XXX"
        }
      ]
    },
    {
      "id": "MthEff02_KM_TTE",
      "name": "Kaplan-Meier time-to-event analysis",
      "label": "Kaplan-Meier median + Cox hazard ratio vs placebo",
      "description": "Kaplan-Meier estimate of median time to event with a Cox proportional-hazards hazard ratio vs placebo and log-rank p-value.",
      "operations": [
        {
          "id": "MthEff02_KM_TTE_1_nEvent",
          "order": 1,
          "name": "Number of subjects with an event",
          "label": "Events",
          "resultPattern": "XX"
        },
        {
          "id": "MthEff02_KM_TTE_2_Median",
          "order": 2,
          "name": "Kaplan-Meier median time to event",
          "label": "Median (days)",
          "resultPattern": "XX.X"
        },
        {
          "id": "MthEff02_KM_TTE_3_HR",
          "order": 3,
          "name": "Cox hazard ratio vs placebo",
          "label": "Hazard Ratio",
          "resultPattern": "XX.XX"
        },
        {
          "id": "MthEff02_KM_TTE_4_HRCILower",
          "order": 4,
          "name": "Lower 95% CI of hazard ratio",
          "label": "95% CI Lower",
          "resultPattern": "XX.XX"
        },
        {
          "id": "MthEff02_KM_TTE_5_HRCIUpper",
          "order": 5,
          "name": "Upper 95% CI of hazard ratio",
          "label": "95% CI Upper",
          "resultPattern": "XX.XX"
        },
        {
          "id": "MthEff02_KM_TTE_6_pval",
          "order": 6,
          "name": "Log-rank p-value",
          "label": "p-value",
          "resultPattern": "X.XXX"
        }
      ]
    }
  ],
  "analyses": [
    {
      "name": "Summary of Subjects by Treatment",
      "id": "An01_05_SAF_Summ_ByTrt",
      "reason": {
        "controlledTerm": "SPECIFIED IN SAP"
      },
      "purpose": {
        "controlledTerm": "PRIMARY OUTCOME MEASURE"
      },
      "methodId": "Mth01_CatVar_Count_ByGrp",
      "version": 1,
      "documentRefs": [
        {
          "referenceDocumentId": "CDISCPILOT01_SAP",
          "pageRefs": [
            {
              "refType": "PhysicalRef",
              "label": "6. ANALYSIS POPULATIONS",
              "pageNumbers": [
                9
              ]
            }
          ]
        }
      ],
      "categoryIds": [
        "Catn_01_Grp_1_Pop",
        "Catn_02_Dclass_1_Sbj",
        "Catn_03_SbjDType_1_Dm"
      ],
      "dataset": "ADSL",
      "variable": "USUBJID",
      "analysisSetId": "AnalysisSet_02_SAF",
      "orderedGroupings": [
        {
          "order": 1,
          "groupingId": "AnlsGrouping_01_Trt",
          "resultsByGroup": true
        }
      ]
    },
    {
      "name": "Summary of Age by Treatment",
      "label": "Age",
      "id": "An03_01_Age_Summ_ByTrt",
      "reason": {
        "controlledTerm": "SPECIFIED IN SAP"
      },
      "purpose": {
        "controlledTerm": "PRIMARY OUTCOME MEASURE"
      },
      "methodId": "Mth02_ContVar_Summ_ByGrp",
      "version": 1,
      "documentRefs": [
        {
          "referenceDocumentId": "CDISCPILOT01_SAP",
          "pageRefs": [
            {
              "refType": "PhysicalRef",
              "label": "9.2. Demographic and Baseline Characteristics",
              "pageNumbers": [
                13
              ]
            }
          ]
        }
      ],
      "categoryIds": [
        "Catn_01_Grp_1_Pop",
        "Catn_02_Dclass_1_Sbj",
        "Catn_03_SbjDType_1_Dm"
      ],
      "dataset": "ADSL",
      "variable": "AGE",
      "analysisSetId": "AnalysisSet_02_SAF",
      "orderedGroupings": [
        {
          "order": 1,
          "groupingId": "AnlsGrouping_01_Trt",
          "resultsByGroup": true
        }
      ]
    },
    {
      "name": "Comparison of Age by Treatment",
      "label": "Age",
      "id": "An03_01_Age_Comp_ByTrt",
      "reason": {
        "controlledTerm": "SPECIFIED IN SAP"
      },
      "purpose": {
        "controlledTerm": "PRIMARY OUTCOME MEASURE"
      },
      "methodId": "Mth04_ContVar_Comp_Anova",
      "version": 1,
      "documentRefs": [
        {
          "referenceDocumentId": "CDISCPILOT01_SAP",
          "pageRefs": [
            {
              "refType": "PhysicalRef",
              "label": "9.2. Demographic and Baseline Characteristics",
              "pageNumbers": [
                13
              ]
            }
          ]
        }
      ],
      "categoryIds": [
        "Catn_01_Grp_1_Pop",
        "Catn_02_Dclass_1_Sbj",
        "Catn_03_SbjDType_1_Dm"
      ],
      "dataset": "ADSL",
      "variable": "AGE",
      "analysisSetId": "AnalysisSet_02_SAF",
      "orderedGroupings": [
        {
          "order": 1,
          "groupingId": "AnlsGrouping_01_Trt",
          "resultsByGroup": false
        }
      ],
      "programmingCode": {
        "context": "SAS Version 9.4",
        "code": "proc glm data=ADSL;\nclass TRT01A;\nmodel AGE=TRT01A;\nods output OverallANOVA=results.ANOVAGE (where=(source = 'Model'));\nrun;"
      }
    },
    {
      "name": "Summary of Subjects by Treatment and Age Group",
      "label": "Age Group",
      "id": "An03_02_AgeGrp_Summ_ByTrt",
      "reason": {
        "controlledTerm": "SPECIFIED IN SAP"
      },
      "purpose": {
        "controlledTerm": "PRIMARY OUTCOME MEASURE"
      },
      "methodId": "Mth01_CatVar_Summ_ByGrp",
      "version": 1,
      "documentRefs": [
        {
          "referenceDocumentId": "CDISCPILOT01_SAP",
          "pageRefs": [
            {
              "refType": "PhysicalRef",
              "label": "9.2. Demographic and Baseline Characteristics",
              "pageNumbers": [
                13
              ]
            }
          ]
        }
      ],
      "categoryIds": [
        "Catn_01_Grp_1_Pop",
        "Catn_02_Dclass_1_Sbj",
        "Catn_03_SbjDType_1_Dm"
      ],
      "dataset": "ADSL",
      "variable": "USUBJID",
      "analysisSetId": "AnalysisSet_02_SAF",
      "orderedGroupings": [
        {
          "order": 1,
          "groupingId": "AnlsGrouping_01_Trt",
          "resultsByGroup": true
        },
        {
          "order": 2,
          "groupingId": "AnlsGrouping_03_AgeGp",
          "resultsByGroup": true
        }
      ],
      "referencedAnalysisOperations": [
        {
          "referencedOperationRelationshipId": "Mth01_CatVar_Summ_ByGrp_2_pct_NUM",
          "analysisId": "An03_02_AgeGrp_Summ_ByTrt"
        },
        {
          "referencedOperationRelationshipId": "Mth01_CatVar_Summ_ByGrp_2_pct_DEN",
          "analysisId": "An01_05_SAF_Summ_ByTrt"
        }
      ]
    },
    {
      "name": "Comparison of Age Group by Treatment",
      "label": "Age Group",
      "id": "An03_02_AgeGrp_Comp_ByTrt",
      "reason": {
        "controlledTerm": "SPECIFIED IN SAP"
      },
      "purpose": {
        "controlledTerm": "PRIMARY OUTCOME MEASURE"
      },
      "methodId": "Mth03_CatVar_Comp_PChiSq",
      "version": 1,
      "documentRefs": [
        {
          "referenceDocumentId": "CDISCPILOT01_SAP",
          "pageRefs": [
            {
              "refType": "PhysicalRef",
              "label": "9.2. Demographic and Baseline Characteristics",
              "pageNumbers": [
                13
              ]
            }
          ]
        }
      ],
      "categoryIds": [
        "Catn_01_Grp_1_Pop",
        "Catn_02_Dclass_1_Sbj",
        "Catn_03_SbjDType_1_Dm"
      ],
      "dataset": "ADSL",
      "variable": "USUBJID",
      "analysisSetId": "AnalysisSet_02_SAF",
      "orderedGroupings": [
        {
          "order": 1,
          "groupingId": "AnlsGrouping_01_Trt",
          "resultsByGroup": false
        },
        {
          "order": 2,
          "groupingId": "AnlsGrouping_03_AgeGp",
          "resultsByGroup": false
        }
      ],
      "programmingCode": {
        "context": "SAS Version 9.4",
        "code": "proc freq data=ADSL;\ntable TRT01A*AGEGR1/chisq;\nexact pchi; \nods output PearsonChiSq=results.PCHIAGEGR1;\nrun;"
      }
    },
    {
      "name": "Summary of Subjects by Treatment and Sex",
      "label": "Sex",
      "id": "An03_03_Sex_Summ_ByTrt",
      "reason": {
        "controlledTerm": "SPECIFIED IN SAP"
      },
      "purpose": {
        "controlledTerm": "PRIMARY OUTCOME MEASURE"
      },
      "methodId": "Mth01_CatVar_Summ_ByGrp",
      "version": 1,
      "documentRefs": [
        {
          "referenceDocumentId": "CDISCPILOT01_SAP",
          "pageRefs": [
            {
              "refType": "PhysicalRef",
              "label": "9.2. Demographic and Baseline Characteristics",
              "pageNumbers": [
                13
              ]
            }
          ]
        }
      ],
      "categoryIds": [
        "Catn_01_Grp_1_Pop",
        "Catn_02_Dclass_1_Sbj",
        "Catn_03_SbjDType_1_Dm"
      ],
      "dataset": "ADSL",
      "variable": "USUBJID",
      "analysisSetId": "AnalysisSet_02_SAF",
      "orderedGroupings": [
        {
          "order": 1,
          "groupingId": "AnlsGrouping_01_Trt",
          "resultsByGroup": true
        },
        {
          "order": 2,
          "groupingId": "AnlsGrouping_02_Sex",
          "resultsByGroup": true
        }
      ],
      "referencedAnalysisOperations": [
        {
          "referencedOperationRelationshipId": "Mth01_CatVar_Summ_ByGrp_2_pct_NUM",
          "analysisId": "An03_03_Sex_Summ_ByTrt"
        },
        {
          "referencedOperationRelationshipId": "Mth01_CatVar_Summ_ByGrp_2_pct_DEN",
          "analysisId": "An01_05_SAF_Summ_ByTrt"
        }
      ]
    },
    {
      "name": "Comparison of Sex by Treatment",
      "label": "Sex",
      "id": "An03_03_Sex_Comp_ByTrt",
      "reason": {
        "controlledTerm": "SPECIFIED IN SAP"
      },
      "purpose": {
        "controlledTerm": "PRIMARY OUTCOME MEASURE"
      },
      "methodId": "Mth03_CatVar_Comp_PChiSq",
      "version": 1,
      "documentRefs": [
        {
          "referenceDocumentId": "CDISCPILOT01_SAP",
          "pageRefs": [
            {
              "refType": "PhysicalRef",
              "label": "9.2. Demographic and Baseline Characteristics",
              "pageNumbers": [
                13
              ]
            }
          ]
        }
      ],
      "categoryIds": [
        "Catn_01_Grp_1_Pop",
        "Catn_02_Dclass_1_Sbj",
        "Catn_03_SbjDType_1_Dm"
      ],
      "dataset": "ADSL",
      "variable": "USUBJID",
      "analysisSetId": "AnalysisSet_02_SAF",
      "orderedGroupings": [
        {
          "order": 1,
          "groupingId": "AnlsGrouping_01_Trt",
          "resultsByGroup": false
        },
        {
          "order": 2,
          "groupingId": "AnlsGrouping_02_Sex",
          "resultsByGroup": false
        }
      ],
      "programmingCode": {
        "context": "SAS Version 9.4",
        "code": "proc freq data=ADSL;\ntable TRT01A*SEX/chisq;\nexact pchi; \nods output PearsonChiSq=results.PCHISEX;\nrun;"
      }
    },
    {
      "name": "Summary of Subjects by Treatment and Ethnicity",
      "label": "Ethnicity",
      "id": "An03_04_Ethnic_Summ_ByTrt",
      "reason": {
        "controlledTerm": "SPECIFIED IN SAP"
      },
      "purpose": {
        "controlledTerm": "PRIMARY OUTCOME MEASURE"
      },
      "methodId": "Mth01_CatVar_Summ_ByGrp",
      "version": 1,
      "documentRefs": [
        {
          "referenceDocumentId": "CDISCPILOT01_SAP",
          "pageRefs": [
            {
              "refType": "PhysicalRef",
              "label": "9.2. Demographic and Baseline Characteristics",
              "pageNumbers": [
                13
              ]
            }
          ]
        }
      ],
      "categoryIds": [
        "Catn_01_Grp_1_Pop",
        "Catn_02_Dclass_1_Sbj",
        "Catn_03_SbjDType_1_Dm"
      ],
      "dataset": "ADSL",
      "variable": "USUBJID",
      "analysisSetId": "AnalysisSet_02_SAF",
      "orderedGroupings": [
        {
          "order": 1,
          "groupingId": "AnlsGrouping_01_Trt",
          "resultsByGroup": true
        },
        {
          "order": 2,
          "groupingId": "AnlsGrouping_05_Ethnic",
          "resultsByGroup": true
        }
      ],
      "referencedAnalysisOperations": [
        {
          "referencedOperationRelationshipId": "Mth01_CatVar_Summ_ByGrp_2_pct_NUM",
          "analysisId": "An03_04_Ethnic_Summ_ByTrt"
        },
        {
          "referencedOperationRelationshipId": "Mth01_CatVar_Summ_ByGrp_2_pct_DEN",
          "analysisId": "An01_05_SAF_Summ_ByTrt"
        }
      ]
    },
    {
      "name": "Comparison of Ethnicity by Treatment",
      "label": "Ethnicity",
      "id": "An03_04_Ethnic_Comp_ByTrt",
      "reason": {
        "controlledTerm": "SPECIFIED IN SAP"
      },
      "purpose": {
        "controlledTerm": "PRIMARY OUTCOME MEASURE"
      },
      "methodId": "Mth03_CatVar_Comp_PChiSq",
      "version": 1,
      "documentRefs": [
        {
          "referenceDocumentId": "CDISCPILOT01_SAP",
          "pageRefs": [
            {
              "refType": "PhysicalRef",
              "label": "9.2. Demographic and Baseline Characteristics",
              "pageNumbers": [
                13
              ]
            }
          ]
        }
      ],
      "categoryIds": [
        "Catn_01_Grp_1_Pop",
        "Catn_02_Dclass_1_Sbj",
        "Catn_03_SbjDType_1_Dm"
      ],
      "dataset": "ADSL",
      "variable": "USUBJID",
      "analysisSetId": "AnalysisSet_02_SAF",
      "orderedGroupings": [
        {
          "order": 1,
          "groupingId": "AnlsGrouping_01_Trt",
          "resultsByGroup": false
        },
        {
          "order": 2,
          "groupingId": "AnlsGrouping_05_Ethnic",
          "resultsByGroup": false
        }
      ],
      "programmingCode": {
        "context": "SAS Version 9.4",
        "code": "proc freq data=ADSL;\ntable TRT01A*ETHNIC/chisq;\nexact pchi; \nods output PearsonChiSq=results.PCHIETHNIC;\nrun;"
      }
    },
    {
      "name": "Summary of Subjects by Treatment and Race",
      "label": "Race",
      "id": "An03_05_Race_Summ_ByTrt",
      "reason": {
        "controlledTerm": "SPECIFIED IN SAP"
      },
      "purpose": {
        "controlledTerm": "PRIMARY OUTCOME MEASURE"
      },
      "methodId": "Mth01_CatVar_Summ_ByGrp",
      "version": 1,
      "documentRefs": [
        {
          "referenceDocumentId": "CDISCPILOT01_SAP",
          "pageRefs": [
            {
              "refType": "PhysicalRef",
              "label": "9.2. Demographic and Baseline Characteristics",
              "pageNumbers": [
                13
              ]
            }
          ]
        }
      ],
      "categoryIds": [
        "Catn_01_Grp_1_Pop",
        "Catn_02_Dclass_1_Sbj",
        "Catn_03_SbjDType_1_Dm"
      ],
      "dataset": "ADSL",
      "variable": "USUBJID",
      "analysisSetId": "AnalysisSet_02_SAF",
      "orderedGroupings": [
        {
          "order": 1,
          "groupingId": "AnlsGrouping_01_Trt",
          "resultsByGroup": true
        },
        {
          "order": 2,
          "groupingId": "AnlsGrouping_04_Race",
          "resultsByGroup": true
        }
      ],
      "referencedAnalysisOperations": [
        {
          "referencedOperationRelationshipId": "Mth01_CatVar_Summ_ByGrp_2_pct_NUM",
          "analysisId": "An03_05_Race_Summ_ByTrt"
        },
        {
          "referencedOperationRelationshipId": "Mth01_CatVar_Summ_ByGrp_2_pct_DEN",
          "analysisId": "An01_05_SAF_Summ_ByTrt"
        }
      ]
    },
    {
      "name": "Comparison of Race by Treatment",
      "label": "Race",
      "id": "An03_05_Race_Comp_ByTrt",
      "reason": {
        "controlledTerm": "SPECIFIED IN SAP"
      },
      "purpose": {
        "controlledTerm": "PRIMARY OUTCOME MEASURE"
      },
      "methodId": "Mth03_CatVar_Comp_PChiSq",
      "version": 1,
      "documentRefs": [
        {
          "referenceDocumentId": "CDISCPILOT01_SAP",
          "pageRefs": [
            {
              "refType": "PhysicalRef",
              "label": "9.2. Demographic and Baseline Characteristics",
              "pageNumbers": [
                13
              ]
            }
          ]
        }
      ],
      "categoryIds": [
        "Catn_01_Grp_1_Pop",
        "Catn_02_Dclass_1_Sbj",
        "Catn_03_SbjDType_1_Dm"
      ],
      "dataset": "ADSL",
      "variable": "USUBJID",
      "analysisSetId": "AnalysisSet_02_SAF",
      "orderedGroupings": [
        {
          "order": 1,
          "groupingId": "AnlsGrouping_01_Trt",
          "resultsByGroup": false
        },
        {
          "order": 2,
          "groupingId": "AnlsGrouping_04_Race",
          "resultsByGroup": false
        }
      ],
      "programmingCode": {
        "context": "SAS Version 9.4",
        "code": "proc freq data=ADSL;\ntable TRT01A*RACE/chisq;\nexact pchi; \nods output PearsonChiSq=results.PCHIRACE;\nrun;"
      }
    },
    {
      "name": "Summary of Height by Treatment",
      "label": "Height",
      "id": "An03_06_Height_Summ_ByTrt",
      "reason": {
        "controlledTerm": "SPECIFIED IN SAP"
      },
      "purpose": {
        "controlledTerm": "PRIMARY OUTCOME MEASURE"
      },
      "methodId": "Mth02_ContVar_Summ_ByGrp",
      "version": 1,
      "documentRefs": [
        {
          "referenceDocumentId": "CDISCPILOT01_SAP",
          "pageRefs": [
            {
              "refType": "PhysicalRef",
              "label": "9.2. Demographic and Baseline Characteristics",
              "pageNumbers": [
                13
              ]
            }
          ]
        }
      ],
      "categoryIds": [
        "Catn_01_Grp_1_Pop",
        "Catn_02_Dclass_1_Sbj",
        "Catn_03_SbjDType_1_Dm"
      ],
      "dataset": "ADSL",
      "variable": "HEIGHTBL",
      "analysisSetId": "AnalysisSet_02_SAF",
      "orderedGroupings": [
        {
          "order": 1,
          "groupingId": "AnlsGrouping_01_Trt",
          "resultsByGroup": true
        }
      ]
    },
    {
      "name": "Comparison of Height by Treatment",
      "label": "Height",
      "id": "An03_06_Height_Comp_ByTrt",
      "reason": {
        "controlledTerm": "SPECIFIED IN SAP"
      },
      "purpose": {
        "controlledTerm": "PRIMARY OUTCOME MEASURE"
      },
      "methodId": "Mth04_ContVar_Comp_Anova",
      "version": 1,
      "documentRefs": [
        {
          "referenceDocumentId": "CDISCPILOT01_SAP",
          "pageRefs": [
            {
              "refType": "PhysicalRef",
              "label": "9.2. Demographic and Baseline Characteristics",
              "pageNumbers": [
                13
              ]
            }
          ]
        }
      ],
      "categoryIds": [
        "Catn_01_Grp_1_Pop",
        "Catn_02_Dclass_1_Sbj",
        "Catn_03_SbjDType_1_Dm"
      ],
      "dataset": "ADSL",
      "variable": "HEIGHTBL",
      "analysisSetId": "AnalysisSet_02_SAF",
      "orderedGroupings": [
        {
          "order": 1,
          "groupingId": "AnlsGrouping_01_Trt",
          "resultsByGroup": false
        }
      ],
      "programmingCode": {
        "context": "SAS Version 9.4",
        "code": "proc glm data=ADSL;\nclass TRT01A;\nmodel HEIGHTBL=TRT01A;\nods output OverallANOVA=results.ANOVHEIGHTBL (where=(source = 'Model'));\nrun;"
      }
    },
    {
      "name": "Summary of Subjects with At Least One TEAE, by Treatment",
      "label": "TEAE",
      "id": "An07_01_TEAE_Summ_ByTrt",
      "reason": {
        "controlledTerm": "SPECIFIED IN SAP"
      },
      "purpose": {
        "controlledTerm": "PRIMARY OUTCOME MEASURE"
      },
      "methodId": "Mth01_CatVar_Summ_ByGrp",
      "version": 1,
      "documentRefs": [
        {
          "referenceDocumentId": "CDISCPILOT01_SAP",
          "pageRefs": [
            {
              "refType": "PhysicalRef",
              "label": "11.2. Adverse Events",
              "firstPage": 15,
              "lastPage": 16
            }
          ]
        }
      ],
      "categoryIds": [
        "Catn_01_Grp_2_Saf",
        "Catn_02_Dclass_2_Evt",
        "Catn_04_EvtDType_1_Ae",
        "Catn_05_EvtAType_1_Occ"
      ],
      "dataset": "ADAE",
      "variable": "USUBJID",
      "analysisSetId": "AnalysisSet_02_SAF",
      "dataSubsetId": "Dss01_TEAE",
      "orderedGroupings": [
        {
          "order": 1,
          "groupingId": "AnlsGrouping_01_Trt",
          "resultsByGroup": true
        }
      ],
      "referencedAnalysisOperations": [
        {
          "referencedOperationRelationshipId": "Mth01_CatVar_Summ_ByGrp_2_pct_NUM",
          "analysisId": "An07_01_TEAE_Summ_ByTrt"
        },
        {
          "referencedOperationRelationshipId": "Mth01_CatVar_Summ_ByGrp_2_pct_DEN",
          "analysisId": "An01_05_SAF_Summ_ByTrt"
        }
      ]
    },
    {
      "name": "Comparison of Subjects with TEAEs by Treatment - Placebo vs Low Dose",
      "id": "An07_01_TEAE_Comp_ByTrt_PlacLow",
      "reason": {
        "sponsorTermId": "TermEx1_1"
      },
      "purpose": {
        "controlledTerm": "SECONDARY OUTCOME MEASURE"
      },
      "methodId": "Mth05_CatVar_Comp_FishEx",
      "version": 1,
      "documentRefs": [
        {
          "referenceDocumentId": "CDISCPILOT01_SAP",
          "pageRefs": [
            {
              "refType": "PhysicalRef",
              "label": "11.2. Adverse Events",
              "firstPage": 15,
              "lastPage": 16
            }
          ]
        }
      ],
      "categoryIds": [
        "Catn_01_Grp_2_Saf",
        "Catn_02_Dclass_2_Evt",
        "Catn_04_EvtDType_1_Ae",
        "Catn_05_EvtAType_1_Occ"
      ],
      "dataset": "ADAE",
      "variable": "USUBJID",
      "analysisSetId": "AnalysisSet_02_SAF",
      "dataSubsetId": "Dss11_TEAE_PlacLow",
      "orderedGroupings": [
        {
          "order": 1,
          "groupingId": "AnlsGrouping_01_Trt",
          "resultsByGroup": false
        }
      ]
    },
    {
      "name": "Comparison of Subjects with TEAEs by Treatment - Placebo vs High Dose",
      "id": "An07_01_TEAE_Comp_ByTrt_PlacHigh",
      "reason": {
        "sponsorTermId": "TermEx1_1"
      },
      "purpose": {
        "controlledTerm": "SECONDARY OUTCOME MEASURE"
      },
      "methodId": "Mth05_CatVar_Comp_FishEx",
      "version": 1,
      "documentRefs": [
        {
          "referenceDocumentId": "CDISCPILOT01_SAP",
          "pageRefs": [
            {
              "refType": "PhysicalRef",
              "label": "11.2. Adverse Events",
              "firstPage": 15,
              "lastPage": 16
            }
          ]
        }
      ],
      "categoryIds": [
        "Catn_01_Grp_2_Saf",
        "Catn_02_Dclass_2_Evt",
        "Catn_04_EvtDType_1_Ae",
        "Catn_05_EvtAType_1_Occ"
      ],
      "dataset": "ADAE",
      "variable": "USUBJID",
      "analysisSetId": "AnalysisSet_02_SAF",
      "dataSubsetId": "Dss12_TEAE_PlacHigh",
      "orderedGroupings": [
        {
          "order": 1,
          "groupingId": "AnlsGrouping_01_Trt",
          "resultsByGroup": false
        }
      ]
    },
    {
      "name": "Summary of Subjects with At Least One Related TEAE, by Treatment",
      "label": "Related TEAE",
      "id": "An07_02_RelTEAE_Summ_ByTrt",
      "reason": {
        "sponsorTermId": "TermEx1_1"
      },
      "purpose": {
        "controlledTerm": "SECONDARY OUTCOME MEASURE"
      },
      "methodId": "Mth01_CatVar_Summ_ByGrp",
      "version": 1,
      "categoryIds": [
        "Catn_01_Grp_2_Saf",
        "Catn_02_Dclass_2_Evt",
        "Catn_04_EvtDType_1_Ae",
        "Catn_05_EvtAType_1_Occ"
      ],
      "dataset": "ADAE",
      "variable": "USUBJID",
      "analysisSetId": "AnalysisSet_02_SAF",
      "dataSubsetId": "Dss02_Related_TEAE",
      "orderedGroupings": [
        {
          "order": 1,
          "groupingId": "AnlsGrouping_01_Trt",
          "resultsByGroup": true
        }
      ],
      "referencedAnalysisOperations": [
        {
          "referencedOperationRelationshipId": "Mth01_CatVar_Summ_ByGrp_2_pct_NUM",
          "analysisId": "An07_02_RelTEAE_Summ_ByTrt"
        },
        {
          "referencedOperationRelationshipId": "Mth01_CatVar_Summ_ByGrp_2_pct_DEN",
          "analysisId": "An01_05_SAF_Summ_ByTrt"
        }
      ]
    },
    {
      "name": "Summary of Subjects with At Least One Serious TEAE, by Treatment",
      "label": "Serious TEAE",
      "id": "An07_03_SerTEAE_Summ_ByTrt",
      "reason": {
        "sponsorTermId": "TermEx1_1"
      },
      "purpose": {
        "controlledTerm": "SECONDARY OUTCOME MEASURE"
      },
      "methodId": "Mth01_CatVar_Summ_ByGrp",
      "version": 1,
      "categoryIds": [
        "Catn_01_Grp_2_Saf",
        "Catn_02_Dclass_2_Evt",
        "Catn_04_EvtDType_1_Ae",
        "Catn_05_EvtAType_1_Occ"
      ],
      "dataset": "ADAE",
      "variable": "USUBJID",
      "analysisSetId": "AnalysisSet_02_SAF",
      "dataSubsetId": "Dss03_Serious_TEAE",
      "orderedGroupings": [
        {
          "order": 1,
          "groupingId": "AnlsGrouping_01_Trt",
          "resultsByGroup": true
        }
      ],
      "referencedAnalysisOperations": [
        {
          "referencedOperationRelationshipId": "Mth01_CatVar_Summ_ByGrp_2_pct_NUM",
          "analysisId": "An07_03_SerTEAE_Summ_ByTrt"
        },
        {
          "referencedOperationRelationshipId": "Mth01_CatVar_Summ_ByGrp_2_pct_DEN",
          "analysisId": "An01_05_SAF_Summ_ByTrt"
        }
      ]
    },
    {
      "name": "Summary of Subjects with At Least One Related Serious TEAE, by Treatment",
      "label": "Related Serious TEAE",
      "id": "An07_04_RelSerTEAE_Summ_ByTrt",
      "reason": {
        "sponsorTermId": "TermEx1_1"
      },
      "purpose": {
        "controlledTerm": "SECONDARY OUTCOME MEASURE"
      },
      "methodId": "Mth01_CatVar_Summ_ByGrp",
      "version": 1,
      "categoryIds": [
        "Catn_01_Grp_2_Saf",
        "Catn_02_Dclass_2_Evt",
        "Catn_04_EvtDType_1_Ae",
        "Catn_05_EvtAType_1_Occ"
      ],
      "dataset": "ADAE",
      "variable": "USUBJID",
      "analysisSetId": "AnalysisSet_02_SAF",
      "dataSubsetId": "Dss04_RelSer_TEAE",
      "orderedGroupings": [
        {
          "order": 1,
          "groupingId": "AnlsGrouping_01_Trt",
          "resultsByGroup": true
        }
      ],
      "referencedAnalysisOperations": [
        {
          "referencedOperationRelationshipId": "Mth01_CatVar_Summ_ByGrp_2_pct_NUM",
          "analysisId": "An07_04_RelSerTEAE_Summ_ByTrt"
        },
        {
          "referencedOperationRelationshipId": "Mth01_CatVar_Summ_ByGrp_2_pct_DEN",
          "analysisId": "An01_05_SAF_Summ_ByTrt"
        }
      ]
    },
    {
      "name": "Summary of Subjects with At Least One TEAE Leading to Death, by Treatment",
      "label": "TEAE Leading to Death",
      "id": "An07_05_TEAELd2Dth_Summ_ByTrt",
      "reason": {
        "sponsorTermId": "TermEx1_1"
      },
      "purpose": {
        "controlledTerm": "SECONDARY OUTCOME MEASURE"
      },
      "methodId": "Mth01_CatVar_Summ_ByGrp",
      "version": 1,
      "categoryIds": [
        "Catn_01_Grp_2_Saf",
        "Catn_02_Dclass_2_Evt",
        "Catn_04_EvtDType_1_Ae",
        "Catn_05_EvtAType_1_Occ"
      ],
      "dataset": "ADAE",
      "variable": "USUBJID",
      "analysisSetId": "AnalysisSet_02_SAF",
      "dataSubsetId": "Dss05_TEAE_Ld2Dth",
      "orderedGroupings": [
        {
          "order": 1,
          "groupingId": "AnlsGrouping_01_Trt",
          "resultsByGroup": true
        }
      ],
      "referencedAnalysisOperations": [
        {
          "referencedOperationRelationshipId": "Mth01_CatVar_Summ_ByGrp_2_pct_NUM",
          "analysisId": "An07_05_TEAELd2Dth_Summ_ByTrt"
        },
        {
          "referencedOperationRelationshipId": "Mth01_CatVar_Summ_ByGrp_2_pct_DEN",
          "analysisId": "An01_05_SAF_Summ_ByTrt"
        }
      ]
    },
    {
      "name": "Summary of Subjects with At Least One Related TEAE Leading to Death, by Treatment",
      "label": "Related TEAE Leading to Death",
      "id": "An07_06_RelTEAELd2Dth_Summ_ByTrt",
      "reason": {
        "sponsorTermId": "TermEx1_1"
      },
      "purpose": {
        "controlledTerm": "SECONDARY OUTCOME MEASURE"
      },
      "methodId": "Mth01_CatVar_Summ_ByGrp",
      "version": 1,
      "categoryIds": [
        "Catn_01_Grp_2_Saf",
        "Catn_02_Dclass_2_Evt",
        "Catn_04_EvtDType_1_Ae",
        "Catn_05_EvtAType_1_Occ"
      ],
      "dataset": "ADAE",
      "variable": "USUBJID",
      "analysisSetId": "AnalysisSet_02_SAF",
      "dataSubsetId": "Dss06_Rel_TEAE_Ld2Dth",
      "orderedGroupings": [
        {
          "order": 1,
          "groupingId": "AnlsGrouping_01_Trt",
          "resultsByGroup": true
        }
      ],
      "referencedAnalysisOperations": [
        {
          "referencedOperationRelationshipId": "Mth01_CatVar_Summ_ByGrp_2_pct_NUM",
          "analysisId": "An07_06_RelTEAELd2Dth_Summ_ByTrt"
        },
        {
          "referencedOperationRelationshipId": "Mth01_CatVar_Summ_ByGrp_2_pct_DEN",
          "analysisId": "An01_05_SAF_Summ_ByTrt"
        }
      ]
    },
    {
      "name": "Summary of Subjects with At Least One TEAE Leading to Dose Modification, by Treatment",
      "label": "TEAE Leading to Dose Modification [a]",
      "id": "An07_07_TEAELd2DoseMod_Summ_ByTrt",
      "reason": {
        "sponsorTermId": "TermEx1_1"
      },
      "purpose": {
        "controlledTerm": "SECONDARY OUTCOME MEASURE"
      },
      "methodId": "Mth01_CatVar_Summ_ByGrp",
      "version": 1,
      "categoryIds": [
        "Catn_01_Grp_2_Saf",
        "Catn_02_Dclass_2_Evt",
        "Catn_04_EvtDType_1_Ae",
        "Catn_05_EvtAType_1_Occ"
      ],
      "dataset": "ADAE",
      "variable": "USUBJID",
      "analysisSetId": "AnalysisSet_02_SAF",
      "dataSubsetId": "Dss07_TEAE_Ld2DoseMod",
      "orderedGroupings": [
        {
          "order": 1,
          "groupingId": "AnlsGrouping_01_Trt",
          "resultsByGroup": true
        }
      ],
      "referencedAnalysisOperations": [
        {
          "referencedOperationRelationshipId": "Mth01_CatVar_Summ_ByGrp_2_pct_NUM",
          "analysisId": "An07_07_TEAELd2DoseMod_Summ_ByTrt"
        },
        {
          "referencedOperationRelationshipId": "Mth01_CatVar_Summ_ByGrp_2_pct_DEN",
          "analysisId": "An01_05_SAF_Summ_ByTrt"
        }
      ]
    },
    {
      "name": "Summary of Subjects with At Least One TEAE Leading to Treatment Discontinuation, by Treatment",
      "label": "TEAE Leading to Treatment Discontinuation",
      "id": "An07_08_TEAELd2TrtDsc_Summ_ByTrt",
      "reason": {
        "sponsorTermId": "TermEx1_1"
      },
      "purpose": {
        "controlledTerm": "SECONDARY OUTCOME MEASURE"
      },
      "methodId": "Mth01_CatVar_Summ_ByGrp",
      "version": 1,
      "categoryIds": [
        "Catn_01_Grp_2_Saf",
        "Catn_02_Dclass_2_Evt",
        "Catn_04_EvtDType_1_Ae",
        "Catn_05_EvtAType_1_Occ"
      ],
      "dataset": "ADAE",
      "variable": "USUBJID",
      "analysisSetId": "AnalysisSet_02_SAF",
      "dataSubsetId": "Dss08_AE_Ld2TrtDsc",
      "orderedGroupings": [
        {
          "order": 1,
          "groupingId": "AnlsGrouping_01_Trt",
          "resultsByGroup": true
        }
      ],
      "referencedAnalysisOperations": [
        {
          "referencedOperationRelationshipId": "Mth01_CatVar_Summ_ByGrp_2_pct_NUM",
          "analysisId": "An07_08_TEAELd2TrtDsc_Summ_ByTrt"
        },
        {
          "referencedOperationRelationshipId": "Mth01_CatVar_Summ_ByGrp_2_pct_DEN",
          "analysisId": "An01_05_SAF_Summ_ByTrt"
        }
      ]
    },
    {
      "name": "Summary of Subjects with TEAEs by Treatment and System Organ Class",
      "id": "An07_09_Soc_Summ_ByTrt",
      "reason": {
        "controlledTerm": "SPECIFIED IN SAP"
      },
      "purpose": {
        "controlledTerm": "PRIMARY OUTCOME MEASURE"
      },
      "methodId": "Mth01_CatVar_Summ_ByGrp",
      "version": 1,
      "documentRefs": [
        {
          "referenceDocumentId": "CDISCPILOT01_SAP",
          "pageRefs": [
            {
              "refType": "PhysicalRef",
              "label": "11.2. Adverse Events",
              "firstPage": 15,
              "lastPage": 16
            }
          ]
        }
      ],
      "categoryIds": [
        "Catn_01_Grp_2_Saf",
        "Catn_02_Dclass_2_Evt",
        "Catn_04_EvtDType_1_Ae",
        "Catn_05_EvtAType_1_Occ"
      ],
      "dataset": "ADAE",
      "variable": "USUBJID",
      "analysisSetId": "AnalysisSet_02_SAF",
      "dataSubsetId": "Dss01_TEAE",
      "orderedGroupings": [
        {
          "order": 1,
          "groupingId": "AnlsGrouping_01_Trt",
          "resultsByGroup": true
        },
        {
          "order": 2,
          "groupingId": "AnlsGrouping_06_Soc",
          "resultsByGroup": true
        }
      ],
      "referencedAnalysisOperations": [
        {
          "referencedOperationRelationshipId": "Mth01_CatVar_Summ_ByGrp_2_pct_NUM",
          "analysisId": "An07_09_Soc_Summ_ByTrt"
        },
        {
          "referencedOperationRelationshipId": "Mth01_CatVar_Summ_ByGrp_2_pct_DEN",
          "analysisId": "An01_05_SAF_Summ_ByTrt"
        }
      ]
    },
    {
      "name": "Comparison of Subjects with TEAEs by Treatment and System Organ Class - Placebo vs Low Dose",
      "id": "An07_09_Soc_Comp_ByTrt_PlacLow",
      "reason": {
        "controlledTerm": "SPECIFIED IN SAP"
      },
      "purpose": {
        "controlledTerm": "PRIMARY OUTCOME MEASURE"
      },
      "methodId": "Mth05_CatVar_Comp_FishEx",
      "version": 1,
      "documentRefs": [
        {
          "referenceDocumentId": "CDISCPILOT01_SAP",
          "pageRefs": [
            {
              "refType": "PhysicalRef",
              "label": "11.2. Adverse Events",
              "firstPage": 15,
              "lastPage": 16
            }
          ]
        }
      ],
      "categoryIds": [
        "Catn_01_Grp_2_Saf",
        "Catn_02_Dclass_2_Evt",
        "Catn_04_EvtDType_1_Ae",
        "Catn_05_EvtAType_1_Occ"
      ],
      "dataset": "ADAE",
      "variable": "USUBJID",
      "analysisSetId": "AnalysisSet_02_SAF",
      "dataSubsetId": "Dss11_TEAE_PlacLow",
      "orderedGroupings": [
        {
          "order": 1,
          "groupingId": "AnlsGrouping_01_Trt",
          "resultsByGroup": false
        },
        {
          "order": 2,
          "groupingId": "AnlsGrouping_06_Soc",
          "resultsByGroup": true
        }
      ]
    },
    {
      "name": "Comparison of Subjects with TEAEs by Treatment and System Organ Class - Placebo vs High Dose",
      "id": "An07_09_Soc_Comp_ByTrt_PlacHigh",
      "reason": {
        "controlledTerm": "SPECIFIED IN SAP"
      },
      "purpose": {
        "controlledTerm": "PRIMARY OUTCOME MEASURE"
      },
      "methodId": "Mth05_CatVar_Comp_FishEx",
      "version": 1,
      "documentRefs": [
        {
          "referenceDocumentId": "CDISCPILOT01_SAP",
          "pageRefs": [
            {
              "refType": "PhysicalRef",
              "label": "11.2. Adverse Events",
              "firstPage": 15,
              "lastPage": 16
            }
          ]
        }
      ],
      "categoryIds": [
        "Catn_01_Grp_2_Saf",
        "Catn_02_Dclass_2_Evt",
        "Catn_04_EvtDType_1_Ae",
        "Catn_05_EvtAType_1_Occ"
      ],
      "dataset": "ADAE",
      "variable": "USUBJID",
      "analysisSetId": "AnalysisSet_02_SAF",
      "dataSubsetId": "Dss12_TEAE_PlacHigh",
      "orderedGroupings": [
        {
          "order": 1,
          "groupingId": "AnlsGrouping_01_Trt",
          "resultsByGroup": false
        },
        {
          "order": 2,
          "groupingId": "AnlsGrouping_06_Soc",
          "resultsByGroup": true
        }
      ]
    },
    {
      "name": "Summary of Subjects with TEAEs by Treatment, System Organ Class and Preferred Term",
      "id": "An07_10_SocPt_Summ_ByTrt",
      "reason": {
        "controlledTerm": "SPECIFIED IN SAP"
      },
      "purpose": {
        "controlledTerm": "PRIMARY OUTCOME MEASURE"
      },
      "methodId": "Mth01_CatVar_Summ_ByGrp",
      "version": 1,
      "documentRefs": [
        {
          "referenceDocumentId": "CDISCPILOT01_SAP",
          "pageRefs": [
            {
              "refType": "PhysicalRef",
              "label": "11.2. Adverse Events",
              "firstPage": 15,
              "lastPage": 16
            }
          ]
        }
      ],
      "categoryIds": [
        "Catn_01_Grp_2_Saf",
        "Catn_02_Dclass_2_Evt",
        "Catn_04_EvtDType_1_Ae",
        "Catn_05_EvtAType_1_Occ"
      ],
      "dataset": "ADAE",
      "variable": "USUBJID",
      "analysisSetId": "AnalysisSet_02_SAF",
      "dataSubsetId": "Dss01_TEAE",
      "orderedGroupings": [
        {
          "order": 1,
          "groupingId": "AnlsGrouping_01_Trt",
          "resultsByGroup": true
        },
        {
          "order": 2,
          "groupingId": "AnlsGrouping_06_Soc",
          "resultsByGroup": true
        },
        {
          "order": 3,
          "groupingId": "AnlsGrouping_07_Pt",
          "resultsByGroup": true
        }
      ],
      "referencedAnalysisOperations": [
        {
          "referencedOperationRelationshipId": "Mth01_CatVar_Summ_ByGrp_2_pct_NUM",
          "analysisId": "An07_10_SocPt_Summ_ByTrt"
        },
        {
          "referencedOperationRelationshipId": "Mth01_CatVar_Summ_ByGrp_2_pct_DEN",
          "analysisId": "An01_05_SAF_Summ_ByTrt"
        }
      ]
    },
    {
      "name": "Comparison of Subjects with TEAEs by Treatment, System Organ Class and Preferred Term - Placebo vs Low Dose",
      "id": "An07_10_SocPt_Comp_ByTrt_PlacLow",
      "reason": {
        "controlledTerm": "SPECIFIED IN SAP"
      },
      "purpose": {
        "controlledTerm": "PRIMARY OUTCOME MEASURE"
      },
      "methodId": "Mth05_CatVar_Comp_FishEx",
      "version": 1,
      "documentRefs": [
        {
          "referenceDocumentId": "CDISCPILOT01_SAP",
          "pageRefs": [
            {
              "refType": "PhysicalRef",
              "label": "11.2. Adverse Events",
              "firstPage": 15,
              "lastPage": 16
            }
          ]
        }
      ],
      "categoryIds": [
        "Catn_01_Grp_2_Saf",
        "Catn_02_Dclass_2_Evt",
        "Catn_04_EvtDType_1_Ae",
        "Catn_05_EvtAType_1_Occ"
      ],
      "dataset": "ADAE",
      "variable": "USUBJID",
      "analysisSetId": "AnalysisSet_02_SAF",
      "dataSubsetId": "Dss11_TEAE_PlacLow",
      "orderedGroupings": [
        {
          "order": 1,
          "groupingId": "AnlsGrouping_01_Trt",
          "resultsByGroup": false
        },
        {
          "order": 2,
          "groupingId": "AnlsGrouping_06_Soc",
          "resultsByGroup": true
        },
        {
          "order": 3,
          "groupingId": "AnlsGrouping_07_Pt",
          "resultsByGroup": true
        }
      ]
    },
    {
      "name": "Comparison of Subjects with TEAEs by Treatment, System Organ Class and Preferred Term - Placebo vs High Dose",
      "id": "An07_10_SocPt_Comp_ByTrt_PlacHigh",
      "reason": {
        "controlledTerm": "SPECIFIED IN SAP"
      },
      "purpose": {
        "controlledTerm": "PRIMARY OUTCOME MEASURE"
      },
      "methodId": "Mth05_CatVar_Comp_FishEx",
      "version": 1,
      "documentRefs": [
        {
          "referenceDocumentId": "CDISCPILOT01_SAP",
          "pageRefs": [
            {
              "refType": "PhysicalRef",
              "label": "11.2. Adverse Events",
              "firstPage": 15,
              "lastPage": 16
            }
          ]
        }
      ],
      "categoryIds": [
        "Catn_01_Grp_2_Saf",
        "Catn_02_Dclass_2_Evt",
        "Catn_04_EvtDType_1_Ae",
        "Catn_05_EvtAType_1_Occ"
      ],
      "dataset": "ADAE",
      "variable": "USUBJID",
      "analysisSetId": "AnalysisSet_02_SAF",
      "dataSubsetId": "Dss12_TEAE_PlacHigh",
      "orderedGroupings": [
        {
          "order": 1,
          "groupingId": "AnlsGrouping_01_Trt",
          "resultsByGroup": false
        },
        {
          "order": 2,
          "groupingId": "AnlsGrouping_06_Soc",
          "resultsByGroup": true
        },
        {
          "order": 3,
          "groupingId": "AnlsGrouping_07_Pt",
          "resultsByGroup": true
        }
      ]
    },
    {
      "name": "Summary of Observed Value by Treatment, Parameter and Visit",
      "id": "An08_01_Obs_Summ_ByTrt",
      "reason": {
        "controlledTerm": "SPECIFIED IN SAP"
      },
      "purpose": {
        "controlledTerm": "PRIMARY OUTCOME MEASURE"
      },
      "methodId": "Mth02_ContVar_Summ_ByGrp",
      "version": 1,
      "documentRefs": [
        {
          "referenceDocumentId": "CDISCPILOT01_SAP",
          "pageRefs": [
            {
              "refType": "PhysicalRef",
              "label": "Sections 7 (General Considerations) and 11.6 (Other Safety Measures)",
              "pageNumbers": [
                9,
                17
              ]
            }
          ]
        }
      ],
      "categoryIds": [
        "Catn_01_Grp_2_Saf",
        "Catn_02_Dclass_3_Fnd",
        "Catn_06_FndDType_1_Vs",
        "Catn_07_FndAType_1_Chg"
      ],
      "dataset": "ADVS",
      "variable": "AVAL",
      "analysisSetId": "AnalysisSet_02_SAF",
      "dataSubsetId": "Dss09_VS_AnRec",
      "orderedGroupings": [
        {
          "order": 1,
          "groupingId": "AnlsGrouping_01_Trt",
          "resultsByGroup": true
        },
        {
          "order": 2,
          "groupingId": "AnlsGrouping_08_Param",
          "resultsByGroup": true
        },
        {
          "order": 3,
          "groupingId": "AnlsGrouping_09_Visit",
          "resultsByGroup": true
        }
      ]
    },
    {
      "name": "Summary of Change from Baseline by Treatment, Parameter and Visit",
      "id": "An08_02_ChgBl_Summ_ByTrt",
      "reason": {
        "controlledTerm": "SPECIFIED IN SAP"
      },
      "purpose": {
        "controlledTerm": "PRIMARY OUTCOME MEASURE"
      },
      "methodId": "Mth02_ContVar_Summ_ByGrp",
      "version": 1,
      "documentRefs": [
        {
          "referenceDocumentId": "CDISCPILOT01_SAP",
          "pageRefs": [
            {
              "refType": "PhysicalRef",
              "label": "Sections 7 (General Considerations)",
              "pageNumbers": [
                9
              ]
            },
            {
              "refType": "PhysicalRef",
              "label": "11.6 (Other Safety Measures)",
              "pageNumbers": [
                17
              ]
            }
          ]
        },
        {
          "referenceDocumentId": "CDISCPILOT01_CSR",
          "pageRefs": [
            {
              "refType": "NamedDestination",
              "pageNames": [
                "Table 14-7.02"
              ]
            }
          ]
        }
      ],
      "categoryIds": [
        "Catn_01_Grp_2_Saf",
        "Catn_02_Dclass_3_Fnd",
        "Catn_06_FndDType_1_Vs",
        "Catn_07_FndAType_1_Chg"
      ],
      "dataset": "ADVS",
      "variable": "CHG",
      "analysisSetId": "AnalysisSet_02_SAF",
      "dataSubsetId": "Dss10_VS_NonBl_AnRec",
      "orderedGroupings": [
        {
          "order": 1,
          "groupingId": "AnlsGrouping_01_Trt",
          "resultsByGroup": true
        },
        {
          "order": 2,
          "groupingId": "AnlsGrouping_08_Param",
          "resultsByGroup": true
        },
        {
          "order": 3,
          "groupingId": "AnlsGrouping_09_Visit",
          "resultsByGroup": true
        }
      ]
    },
    {
      "id": "AnEff01_ADAS_Wk24_ANCOVA",
      "name": "ADAS-Cog (11) Change from Baseline to Week 24 - ANCOVA",
      "reason": {
        "controlledTerm": "SPECIFIED IN SAP"
      },
      "purpose": {
        "controlledTerm": "PRIMARY OUTCOME MEASURE"
      },
      "methodId": "MthEff01_ANCOVA_ChgBl",
      "dataset": "ADQSADAS",
      "variable": "CHG",
      "analysisSetId": "AnalysisSet_01_ITT",
      "dataSubsetId": "DssEff01_ADAS_Wk24",
      "orderedGroupings": [
        {
          "order": 1,
          "groupingId": "AnlsGrouping_01_Trt",
          "resultsByGroup": true
        }
      ]
    },
    {
      "id": "AnEff02_TTE_KM",
      "name": "Time to First Dermatologic Event - Kaplan-Meier",
      "reason": {
        "controlledTerm": "SPECIFIED IN SAP"
      },
      "purpose": {
        "controlledTerm": "SECONDARY OUTCOME MEASURE"
      },
      "methodId": "MthEff02_KM_TTE",
      "dataset": "ADTTE",
      "variable": "AVAL",
      "analysisSetId": "AnalysisSet_01_ITT",
      "dataSubsetId": "DssEff02_TTE_Primary",
      "orderedGroupings": [
        {
          "order": 1,
          "groupingId": "AnlsGrouping_01_Trt",
          "resultsByGroup": true
        }
      ]
    }
  ],
  "globalDisplaySections": [
    {
      "sectionType": "Header",
      "subSections": [
        {
          "id": "GlobalDisp_Header_1",
          "text": "Study - CDISC 360"
        },
        {
          "id": "GlobalDisp_Header_2",
          "text": "Page x of y"
        }
      ]
    },
    {
      "sectionType": "Title",
      "subSections": [
        {
          "id": "GlobalDisp_Title_1",
          "text": "Safety Population"
        }
      ]
    },
    {
      "sectionType": "Footer",
      "subSections": [
        {
          "id": "GlobalDisp_Footer_1",
          "text": "Program: <pid>.sas, Output: <pid><oid>.rtf, Generated on: DDMONYYYY:HH:MM"
        }
      ]
    }
  ],
  "outputs": [
    {
      "name": "Summary of Demographics",
      "id": "Out14-1-1",
      "displays": [
        {
          "order": 1,
          "display": {
            "name": "Demographics",
            "label": "Demog",
            "id": "Disp14-1-1",
            "version": 1,
            "displayTitle": "Summary of Demographics",
            "displaySections": [
              {
                "sectionType": "Header",
                "orderedSubSections": [
                  {
                    "order": 1,
                    "subSectionId": "GlobalDisp_Header_1"
                  },
                  {
                    "order": 2,
                    "subSectionId": "GlobalDisp_Header_2"
                  }
                ]
              },
              {
                "sectionType": "Title",
                "orderedSubSections": [
                  {
                    "order": 1,
                    "subSection": {
                      "id": "Disp14-1-1_Title_1",
                      "text": "Table 14.1.1"
                    }
                  },
                  {
                    "order": 2,
                    "subSection": {
                      "id": "Disp14-1-1_Title_2",
                      "text": "Summary of Demographics"
                    }
                  },
                  {
                    "order": 3,
                    "subSectionId": "GlobalDisp_Title_1"
                  }
                ]
              },
              {
                "sectionType": "Footer",
                "orderedSubSections": [
                  {
                    "order": 1,
                    "subSection": {
                      "id": "Disp14-1-1_Footer_1",
                      "text": "Source dataset: adsl, Generated on: DDMONYYYY:HH:MM"
                    }
                  },
                  {
                    "order": 2,
                    "subSectionId": "GlobalDisp_Footer_1"
                  }
                ]
              },
              {
                "sectionType": "Rowlabel Header",
                "orderedSubSections": [
                  {
                    "order": 1,
                    "subSection": {
                      "id": "Disp14-1-1_RLbHd_1",
                      "text": "Characteristics"
                    }
                  }
                ]
              }
            ]
          }
        }
      ],
      "version": 1,
      "fileSpecifications": [
        {
          "name": "t14-1-1-demog (RTF)",
          "label": "t14-1-1-demog",
          "fileType": {
            "controlledTerm": "rtf"
          },
          "location": "./t14-1-1-demog.rtf"
        },
        {
          "name": "t14-1-1-demog (PDF)",
          "label": "t14-1-1-demog",
          "fileType": {
            "controlledTerm": "pdf"
          },
          "location": "./t14-1-1-demog.pdf"
        }
      ],
      "categoryIds": [
        "Catn_01_Grp_1_Pop",
        "Catn_03_SbjDType_1_Dm"
      ],
      "documentRefs": [
        {
          "referenceDocumentId": "CDISCPILOT01_CSR",
          "pageRefs": [
            {
              "refType": "PhysicalRef",
              "label": "Table 14-2.01",
              "firstPage": 46,
              "lastPage": 48
            }
          ]
        }
      ]
    },
    {
      "name": "Overall Summary of Treatment-Emergent Adverse Events",
      "id": "Out14-3-1-1",
      "displays": [
        {
          "order": 1,
          "display": {
            "name": "AE Summary",
            "label": "AE_Summ",
            "id": "Disp14-3-1-1",
            "version": 1,
            "displayTitle": "Overall Summary of Treatment-Emergent Adverse Events",
            "displaySections": [
              {
                "sectionType": "Header",
                "orderedSubSections": [
                  {
                    "order": 1,
                    "subSectionId": "GlobalDisp_Header_1"
                  },
                  {
                    "order": 2,
                    "subSectionId": "GlobalDisp_Header_2"
                  }
                ]
              },
              {
                "sectionType": "Title",
                "orderedSubSections": [
                  {
                    "order": 1,
                    "subSection": {
                      "id": "Disp14-3-1-1_Title_1",
                      "text": "Table 14.3.1.<x>.<y>"
                    }
                  },
                  {
                    "order": 2,
                    "subSection": {
                      "id": "Disp14-3-1-1_Title_2",
                      "text": "Overall Summary of Treatment-Emergent Adverse Events"
                    }
                  },
                  {
                    "order": 3,
                    "subSectionId": "GlobalDisp_Title_1"
                  }
                ]
              },
              {
                "sectionType": "Abbreviation",
                "orderedSubSections": [
                  {
                    "order": 1,
                    "subSection": {
                      "id": "Disp14-3-1-1_Abbrv_1",
                      "text": "Note: TEAE=Treatment-Emergent Adverse Events."
                    }
                  }
                ]
              },
              {
                "sectionType": "Footnote",
                "orderedSubSections": [
                  {
                    "order": 1,
                    "subSection": {
                      "id": "Disp14-3-1-1_Fnote_1",
                      "text": "[a] Dose Modification includes Dose Reduced; Drug Interrupted in the AE action taken with study treatment."
                    }
                  }
                ]
              },
              {
                "sectionType": "Footer",
                "orderedSubSections": [
                  {
                    "order": 1,
                    "subSection": {
                      "id": "Disp14-3-1-1_Footer_1",
                      "text": "Source dataset: adae, Generated on: DDMONYYYY:HH:MM"
                    }
                  },
                  {
                    "order": 2,
                    "subSectionId": "GlobalDisp_Footer_1"
                  }
                ]
              },
              {
                "sectionType": "Rowlabel Header",
                "orderedSubSections": [
                  {
                    "order": 1,
                    "subSection": {
                      "id": "Disp14-3-1-1_RLbHd_1",
                      "text": "Categories, n (%)"
                    }
                  }
                ]
              }
            ]
          }
        }
      ],
      "version": 1,
      "fileSpecifications": [
        {
          "name": "t14-3-1-1-teae-summ (RTF)",
          "label": "t14-3-1-1-teae-summ",
          "fileType": {
            "controlledTerm": "rtf"
          },
          "location": "./t14-3-1-1-teae-summ.rtf"
        },
        {
          "name": "t14-3-1-1-teae-summ (PDF)",
          "label": "t14-3-1-1-teae-summ",
          "fileType": {
            "controlledTerm": "pdf"
          },
          "location": "./t14-3-1-1-teae-summ.pdf"
        }
      ],
      "categoryIds": [
        "Catn_01_Grp_2_Saf",
        "Catn_04_EvtDType_1_Ae"
      ],
      "documentRefs": [
        {
          "referenceDocumentId": "AE_Summary_Table_Shell"
        }
      ]
    },
    {
      "name": "Summary of TEAE by System Organ Class and Preferred Term",
      "id": "Out14-3-2-1",
      "displays": [
        {
          "order": 1,
          "display": {
            "name": "AE SOCPT Summary",
            "label": "AE_SOC_PT",
            "id": "Disp14-3-2-1",
            "version": 1,
            "displayTitle": "Summary of TEAE by System Organ Class and Preferred Term",
            "displaySections": [
              {
                "sectionType": "Header",
                "orderedSubSections": [
                  {
                    "order": 1,
                    "subSectionId": "GlobalDisp_Header_1"
                  },
                  {
                    "order": 2,
                    "subSectionId": "GlobalDisp_Header_2"
                  }
                ]
              },
              {
                "sectionType": "Title",
                "orderedSubSections": [
                  {
                    "order": 1,
                    "subSection": {
                      "id": "Disp14-3-2-1_Title_1",
                      "text": "Table 14.3.1.1"
                    }
                  },
                  {
                    "order": 2,
                    "subSection": {
                      "id": "Disp14-3-2-1_Title_2",
                      "text": "Summary of TEAE by System Organ Class and Preferred Term"
                    }
                  },
                  {
                    "order": 3,
                    "subSectionId": "GlobalDisp_Title_1"
                  }
                ]
              },
              {
                "sectionType": "Abbreviation",
                "orderedSubSections": [
                  {
                    "order": 1,
                    "subSection": {
                      "id": "Disp14-3-2-1_Abbrv_1",
                      "text": "Notes: TEAE=Treatment-Emergent Adverse Events."
                    }
                  }
                ]
              },
              {
                "sectionType": "Legend",
                "orderedSubSections": [
                  {
                    "order": 1,
                    "subSection": {
                      "id": "Disp14-3-2-1_Legnd_1",
                      "text": "       Subjects are counted once within each system organ class and preferred term."
                    }
                  }
                ]
              },
              {
                "sectionType": "Footnote",
                "orderedSubSections": [
                  {
                    "order": 1,
                    "subSection": {
                      "id": "Disp14-3-2-1_Fnote_1",
                      "text": "[a] All investigators adverse events were coded using MedDRA version xx.x."
                    }
                  },
                  {
                    "order": 2,
                    "subSection": {
                      "id": "Disp14-3-2-1_Fnote_2",
                      "text": "[b] P-values are based on Fisher's Exact test for the comparison of placebo versus each active treatment group. An asterisk is appended to p-values that are less than 0.15."
                    }
                  }
                ]
              },
              {
                "sectionType": "Footer",
                "orderedSubSections": [
                  {
                    "order": 1,
                    "subSectionId": "Disp14-3-1-1_Footer_1"
                  },
                  {
                    "order": 2,
                    "subSectionId": "GlobalDisp_Footer_1"
                  }
                ]
              },
              {
                "sectionType": "Rowlabel Header",
                "orderedSubSections": [
                  {
                    "order": 1,
                    "subSection": {
                      "id": "Disp14-3-2-1_RLbHd_1",
                      "text": "System Organ Class"
                    }
                  },
                  {
                    "order": 2,
                    "subSection": {
                      "id": "Disp14-3-2-1_RLbHd_2",
                      "text": "    Preferred Term [a], n (%)"
                    }
                  }
                ]
              }
            ]
          }
        }
      ],
      "version": 1,
      "fileSpecifications": [
        {
          "name": "t14-3-2-1-teae-socpt (RTF)",
          "label": "t14-3-2-1-teae-socpt",
          "fileType": {
            "controlledTerm": "rtf"
          },
          "location": "./t14-3-2-1-teae-socpt.rtf"
        },
        {
          "name": "t14-3-2-1-teae-socpt (PDF)",
          "label": "t14-3-2-1-teae-socpt",
          "fileType": {
            "controlledTerm": "pdf"
          },
          "location": "./t14-3-2-1-teae-socpt.pdf"
        }
      ],
      "categoryIds": [
        "Catn_01_Grp_2_Saf",
        "Catn_04_EvtDType_1_Ae"
      ],
      "documentRefs": [
        {
          "referenceDocumentId": "CDISCPILOT01_SAP",
          "pageRefs": [
            {
              "refType": "PhysicalRef",
              "label": "Template 13",
              "pageNumbers": [
                32
              ]
            }
          ]
        },
        {
          "referenceDocumentId": "CDISCPILOT01_CSR",
          "pageRefs": [
            {
              "refType": "PhysicalRef",
              "label": "Table 14-5.01",
              "firstPage": 63,
              "lastPage": 78
            }
          ]
        }
      ],
      "programmingCode": {
        "context": "SAS Version 9.4",
        "documentRef": {
          "referenceDocumentId": "at14-5-01_sas"
        }
      }
    },
    {
      "name": "Summary of Observed and Change from Baseline by Scheduled Visits - Vital Signs Horizontal",
      "id": "Out14-3-3-1a",
      "displays": [
        {
          "order": 1,
          "display": {
            "name": "Vitals Change from Baseline",
            "label": "Vitals_ChgBl",
            "id": "Disp14-3-3-1a",
            "version": 1,
            "displayTitle": "Summary of Observed and Change from Baseline by Scheduled Visits - Vital Signs",
            "displaySections": [
              {
                "sectionType": "Header",
                "orderedSubSections": [
                  {
                    "order": 1,
                    "subSectionId": "GlobalDisp_Header_1"
                  },
                  {
                    "order": 2,
                    "subSectionId": "GlobalDisp_Header_2"
                  }
                ]
              },
              {
                "sectionType": "Title",
                "orderedSubSections": [
                  {
                    "order": 1,
                    "subSection": {
                      "id": "Disp14-3-3-1a_Title_1",
                      "text": "Table 14.3.3.1a"
                    }
                  },
                  {
                    "order": 2,
                    "subSection": {
                      "id": "Disp14-3-3-1a_Title_2",
                      "text": "Summary of Observed and Change from Baseline by Scheduled Visits \u2013 Vital Signs"
                    }
                  },
                  {
                    "order": 3,
                    "subSectionId": "GlobalDisp_Title_1"
                  }
                ]
              },
              {
                "sectionType": "Legend",
                "orderedSubSections": [
                  {
                    "order": 1,
                    "subSection": {
                      "id": "Disp14-3-3-1a_Legnd_1",
                      "text": "Note: Baseline is defined as the last assessment that is non-missing prior to first dose of investigational product."
                    }
                  }
                ]
              },
              {
                "sectionType": "Footer",
                "orderedSubSections": [
                  {
                    "order": 1,
                    "subSection": {
                      "id": "Disp14-3-3-1a_Footer_1",
                      "text": "Source dataset: advs, Generated on: DDMONYYYY:HH:MM"
                    }
                  },
                  {
                    "order": 2,
                    "subSectionId": "GlobalDisp_Footer_1"
                  }
                ]
              },
              {
                "sectionType": "Rowlabel Header",
                "orderedSubSections": [
                  {
                    "order": 1,
                    "subSection": {
                      "id": "Disp14-3-3-1a_RLbHd_1",
                      "text": "Parameter (Units)"
                    }
                  },
                  {
                    "order": 2,
                    "subSection": {
                      "id": "Disp14-3-3-1a_RLbHd_2",
                      "text": "Visit"
                    }
                  }
                ]
              }
            ]
          }
        }
      ],
      "version": 1,
      "fileSpecifications": [
        {
          "name": "t14-3-3-1-vitals-chgbl (RTF)",
          "label": "t14-3-3-1-vitals-chgbl",
          "fileType": {
            "controlledTerm": "rtf"
          },
          "location": "./t14-3-3-1-vitals-chgbl.rtf"
        },
        {
          "name": "t14-3-3-1-vitals-chgbl (PDF)",
          "label": "t14-3-3-1-vitals-chgbl",
          "fileType": {
            "controlledTerm": "pdf"
          },
          "location": "./t14-3-3-1-vitals-chgbl.pdf"
        }
      ],
      "categoryIds": [
        "Catn_01_Grp_2_Saf",
        "Catn_06_FndDType_1_Vs"
      ]
    },
    {
      "name": "Summary of Observed and Change from Baseline by Scheduled Visits - Vital Signs Vertical",
      "id": "Out14-3-3-1b",
      "displays": [
        {
          "order": 1,
          "display": {
            "name": "Vitals Change from Baseline - Vertical",
            "label": "Vitals_ChgBl_Vert",
            "id": "Disp14-3-3-1b",
            "version": 1,
            "displayTitle": "Summary of Observed and Change from Baseline by Scheduled Visits - Vital Signs <Vertical Layout>",
            "displaySections": [
              {
                "sectionType": "Header",
                "orderedSubSections": [
                  {
                    "order": 1,
                    "subSectionId": "GlobalDisp_Header_1"
                  },
                  {
                    "order": 2,
                    "subSectionId": "GlobalDisp_Header_2"
                  }
                ]
              },
              {
                "sectionType": "Title",
                "orderedSubSections": [
                  {
                    "order": 1,
                    "subSection": {
                      "id": "Disp14-3-3-1b_Title_1",
                      "text": "Table 14.3.3.1b"
                    }
                  },
                  {
                    "order": 2,
                    "subSectionId": "Disp14-3-3-1a_Title_2"
                  },
                  {
                    "order": 3,
                    "subSectionId": "GlobalDisp_Title_1"
                  }
                ]
              },
              {
                "sectionType": "Legend",
                "orderedSubSections": [
                  {
                    "order": 1,
                    "subSectionId": "Disp14-3-3-1a_Legnd_1"
                  }
                ]
              },
              {
                "sectionType": "Footer",
                "orderedSubSections": [
                  {
                    "order": 1,
                    "subSectionId": "Disp14-3-3-1a_Footer_1"
                  },
                  {
                    "order": 2,
                    "subSectionId": "GlobalDisp_Footer_1"
                  }
                ]
              },
              {
                "sectionType": "Rowlabel Header",
                "orderedSubSections": [
                  {
                    "order": 1,
                    "subSectionId": "Disp14-3-3-1a_RLbHd_1"
                  },
                  {
                    "order": 2,
                    "subSectionId": "Disp14-3-3-1a_RLbHd_2"
                  }
                ]
              }
            ]
          }
        }
      ],
      "version": 1,
      "fileSpecifications": [
        {
          "name": "t14-3-3-1-vitals-chgbl-vert (RTF)",
          "label": "t14-3-3-1-vitals-chgbl-vert",
          "fileType": {
            "controlledTerm": "rtf"
          },
          "location": "./t14-3-3-1-vitals-chgbl-vert.rtf"
        },
        {
          "name": "t14-3-3-1-vitals-chgbl-vert (PDF)",
          "label": "t14-3-3-1-vitals-chgbl-vert",
          "fileType": {
            "controlledTerm": "pdf"
          },
          "location": "./t14-3-3-1-vitals-chgbl-vert.pdf"
        }
      ],
      "categoryIds": [
        "Catn_01_Grp_2_Saf",
        "Catn_06_FndDType_1_Vs"
      ]
    },
    {
      "id": "Out14-3-01",
      "name": "ADAS-Cog (11) Change from Baseline to Week 24 (ANCOVA)",
      "version": 1,
      "displays": [
        {
          "order": 1,
          "display": {
            "id": "Disp14-3-01",
            "name": "ADAS-Cog Week 24 ANCOVA",
            "label": "ADAS Wk24",
            "version": 1,
            "displayTitle": "ADAS-Cog (11) Change from Baseline to Week 24 - ANCOVA",
            "displaySections": [
              {
                "sectionType": "Title",
                "orderedSubSections": [
                  {
                    "order": 1,
                    "subSection": {
                      "id": "Disp14-3-01_Title_1",
                      "text": "Table 14-3.01"
                    }
                  },
                  {
                    "order": 2,
                    "subSection": {
                      "id": "Disp14-3-01_Title_2",
                      "text": "ADAS-Cog (11) Change from Baseline to Week 24 - ANCOVA"
                    }
                  }
                ]
              },
              {
                "sectionType": "Footer",
                "orderedSubSections": [
                  {
                    "order": 1,
                    "subSection": {
                      "id": "Disp14-3-01_Footer_1",
                      "text": "Source dataset: adqsadas, Generated on: DDMONYYYY:HH:MM"
                    }
                  }
                ]
              }
            ]
          }
        }
      ],
      "fileSpecifications": [
        {
          "name": "t14-3-01-adas-ancova (RTF)",
          "label": "t14-3-01-adas-ancova",
          "fileType": {
            "controlledTerm": "rtf"
          },
          "location": "./t14-3-01-adas-ancova.rtf"
        }
      ]
    },
    {
      "id": "Out14-KM-01",
      "name": "Time to First Dermatologic Event (Kaplan-Meier)",
      "version": 1,
      "displays": [
        {
          "order": 1,
          "display": {
            "id": "Disp14-KM-01",
            "name": "TTDE Kaplan-Meier",
            "label": "TTDE KM",
            "version": 1,
            "displayTitle": "Time to First Dermatologic Event - Kaplan-Meier",
            "displaySections": [
              {
                "sectionType": "Title",
                "orderedSubSections": [
                  {
                    "order": 1,
                    "subSection": {
                      "id": "Disp14-KM-01_Title_1",
                      "text": "Figure 14-KM.01"
                    }
                  },
                  {
                    "order": 2,
                    "subSection": {
                      "id": "Disp14-KM-01_Title_2",
                      "text": "Time to First Dermatologic Event - Kaplan-Meier"
                    }
                  }
                ]
              },
              {
                "sectionType": "Footer",
                "orderedSubSections": [
                  {
                    "order": 1,
                    "subSection": {
                      "id": "Disp14-KM-01_Footer_1",
                      "text": "Source dataset: adtte, Generated on: DDMONYYYY:HH:MM"
                    }
                  }
                ]
              }
            ]
          }
        }
      ],
      "fileSpecifications": [
        {
          "name": "f14-km-01-ttde (PDF)",
          "label": "f14-km-01-ttde",
          "fileType": {
            "controlledTerm": "pdf"
          },
          "location": "./f14-km-01-ttde.pdf"
        }
      ]
    }
  ],
  "@type": "ReportingEvent"
}